"workerid","rt","trial_type","evidenceStatement","freqLevel","characterName","habitual","n","instance","time_period","response","frequency","logFreq"
0,7374,"truthJudge","vacationed in Switzerland",25,"Alicia","vacations in Switzerland",1,"time","10 years","disagree-key",0.1,-2.30258509299405
0,4245,"truthJudge","drank",75,"Alexander","drinks beer",15,"beers","month","agree-key",180,5.19295685089021
0,1317,"truthJudge","smoked",75,"Lucas","smokes",70,"times","week","agree-key",3640,8.19973896063079
0,5502,"truthJudge","biked to work",25,"Laura","bikes to work",2,"times","month","disagree-key",24,3.17805383034795
0,1390,"truthJudge","ran",50,"Stephanie","runs",25,"times","year","agree-key",25,3.2188758248682
0,3783,"truthJudge","stole",50,"Julia","steals cars",2,"cars","10 years","agree-key",0.2,-1.6094379124341
0,3772,"truthJudge","wrote",25,"Greg","writes novels",2,"novels","10 years","agree-key",0.2,-1.6094379124341
0,2757,"truthJudge","biked to work",75,"Michelle","bikes to work",24,"times","month","agree-key",288,5.66296048013595
0,3708,"truthJudge","hiked",75,"Stephen","hikes",12,"times","year","agree-key",12,2.484906649788
0,2013,"truthJudge","ate granola for breakfast",75,"Kathleen","eats granola for breakfast",15,"times","month","agree-key",180,5.19295685089021
0,3784,"truthJudge","vacationed in Switzerland",75,"Anthony","vacations in Switzerland",6,"times","10 years","agree-key",0.6,-0.51082562376599
0,3008,"truthJudge","wrote",50,"Lee","writes poems",5,"poems","5 years","agree-key",1,0
0,2978,"truthJudge","drove to work",75,"Cameron","drives to work",5,"times","week","agree-key",260,5.56068163101553
0,4606,"truthJudge","wrote",25,"Maya","writes poems",1,"poem","5 years","disagree-key",0.2,-1.6094379124341
0,3325,"truthJudge","biked to work",50,"Alexander","bikes to work",6,"times","month","agree-key",72,4.27666611901606
0,2692,"truthJudge","played computer games",25,"Tom","plays computer games",2,"times","week","agree-key",104,4.64439089914137
0,3109,"truthJudge","hiked",50,"Melinda","hikes",4,"times","year","agree-key",4,1.38629436111989
0,3075,"truthJudge","smoked",50,"Daniel","smokes",7,"times","week","agree-key",364,5.89715386763674
0,3113,"truthJudge","hiked",25,"Daniel","hikes",1,"time","year","disagree-key",1,0
0,1276,"truthJudge","ran",75,"Gabriel","runs",120,"times","year","agree-key",120,4.78749174278205
0,2039,"truthJudge","played computer games",50,"William","plays computer games",4,"times","week","agree-key",208,5.33753807970132
0,2621,"truthJudge","drank",50,"Sophia","drinks beer",5,"beers","month","agree-key",60,4.0943445622221
0,3070,"truthJudge","ate granola for breakfast",25,"William","eats granola for breakfast",2,"times","month","disagree-key",24,3.17805383034795
0,1610,"truthJudge","stole",75,"John","steals cars",5,"cars","10 years","agree-key",0.5,-0.693147180559945
0,3378,"truthJudge","ate granola for breakfast",50,"David","eats granola for breakfast",5,"times","month","agree-key",60,4.0943445622221
0,1616,"truthJudge","smoked",25,"Anthony","smokes",1,"time","week","disagree-key",52,3.95124371858143
0,3502,"truthJudge","drove to work",25,"Angela","drives to work",3,"times","week","agree-key",156,5.04985600724954
0,1525,"truthJudge","stole",25,"Jennifer","steals cars",1,"car","10 years","agree-key",0.1,-2.30258509299405
0,8764,"truthJudge","vacationed in Switzerland",50,"Veronica","vacations in Switzerland",2,"times","10 years","disagree-key",0.2,-1.6094379124341
0,1705,"truthJudge","ran",25,"Michael","runs",3,"times","year","disagree-key",3,1.09861228866811
0,1342,"truthJudge","wrote",75,"Gabriel","writes novels",20,"novels","10 years","agree-key",2,0.693147180559945
0,1863,"truthJudge","drove to work",50,"Kim","drives to work",4,"times","week","agree-key",208,5.33753807970132
0,1235,"truthJudge","played computer games",75,"Eric","plays computer games",7,"times","week","agree-key",364,5.89715386763674
0,2156,"truthJudge","wrote",75,"Claire","writes poems",30,"poems","5 years","agree-key",6,1.79175946922805
0,1658,"truthJudge","wrote",50,"Monica","writes novels",10,"novels","10 years","agree-key",1,0
0,1996,"truthJudge","drank",25,"David","drinks beer",1,"beer","month","disagree-key",12,2.484906649788
1,7024,"truthJudge","played computer games",50,"Alexander","plays computer games",4,"times","week","agree-key",208,5.33753807970132
1,2567,"truthJudge","wrote",75,"Cameron","writes poems",30,"poems","5 years","agree-key",6,1.79175946922805
1,2056,"truthJudge","vacationed in Switzerland",75,"Tom","vacations in Switzerland",6,"times","10 years","agree-key",0.6,-0.51082562376599
1,1438,"truthJudge","drove to work",25,"Greg","drives to work",3,"times","week","agree-key",156,5.04985600724954
1,1463,"truthJudge","wrote",25,"Kim","writes novels",2,"novels","10 years","agree-key",0.2,-1.6094379124341
1,1262,"truthJudge","biked to work",25,"Alexander","bikes to work",2,"times","month","agree-key",24,3.17805383034795
1,1419,"truthJudge","ran",25,"Anthony","runs",3,"times","year","agree-key",3,1.09861228866811
1,1158,"truthJudge","ran",50,"Michael","runs",25,"times","year","agree-key",25,3.2188758248682
1,976,"truthJudge","drank",50,"William","drinks beer",5,"beers","month","agree-key",60,4.0943445622221
1,1160,"truthJudge","ate granola for breakfast",75,"Stephen","eats granola for breakfast",15,"times","month","agree-key",180,5.19295685089021
1,1290,"truthJudge","wrote",50,"Gabriel","writes novels",10,"novels","10 years","agree-key",1,0
1,1227,"truthJudge","drank",75,"Michelle","drinks beer",15,"beers","month","agree-key",180,5.19295685089021
1,1295,"truthJudge","wrote",75,"William","writes novels",20,"novels","10 years","agree-key",2,0.693147180559945
1,1089,"truthJudge","drove to work",50,"Veronica","drives to work",4,"times","week","agree-key",208,5.33753807970132
1,1025,"truthJudge","ate granola for breakfast",25,"Daniel","eats granola for breakfast",2,"times","month","agree-key",24,3.17805383034795
1,920,"truthJudge","ran",75,"Laura","runs",120,"times","year","agree-key",120,4.78749174278205
1,1594,"truthJudge","hiked",75,"Claire","hikes",12,"times","year","agree-key",12,2.484906649788
1,4883,"truthJudge","hiked",25,"Jennifer","hikes",1,"time","year","agree-key",1,0
1,856,"truthJudge","wrote",50,"John","writes poems",5,"poems","5 years","agree-key",1,0
1,1106,"truthJudge","played computer games",75,"Angela","plays computer games",7,"times","week","agree-key",364,5.89715386763674
1,1131,"truthJudge","biked to work",50,"David","bikes to work",6,"times","month","agree-key",72,4.27666611901606
1,924,"truthJudge","vacationed in Switzerland",25,"David","vacations in Switzerland",1,"time","10 years","agree-key",0.1,-2.30258509299405
1,1604,"truthJudge","biked to work",75,"Eric","bikes to work",24,"times","month","agree-key",288,5.66296048013595
1,788,"truthJudge","drove to work",75,"Gabriel","drives to work",5,"times","week","agree-key",260,5.56068163101553
1,1471,"truthJudge","hiked",50,"Lee","hikes",4,"times","year","agree-key",4,1.38629436111989
1,1013,"truthJudge","smoked",75,"Stephanie","smokes",70,"times","week","agree-key",3640,8.19973896063079
1,1091,"truthJudge","stole",50,"Sophia","steals cars",2,"cars","10 years","agree-key",0.2,-1.6094379124341
1,1016,"truthJudge","stole",25,"Alicia","steals cars",1,"car","10 years","agree-key",0.1,-2.30258509299405
1,886,"truthJudge","smoked",50,"Monica","smokes",7,"times","week","agree-key",364,5.89715386763674
1,933,"truthJudge","drank",25,"Anthony","drinks beer",1,"beer","month","agree-key",12,2.484906649788
1,915,"truthJudge","played computer games",25,"Daniel","plays computer games",2,"times","week","agree-key",104,4.64439089914137
1,1059,"truthJudge","wrote",25,"Lucas","writes poems",1,"poem","5 years","agree-key",0.2,-1.6094379124341
1,927,"truthJudge","stole",75,"Maya","steals cars",5,"cars","10 years","agree-key",0.5,-0.693147180559945
1,1106,"truthJudge","ate granola for breakfast",50,"Melinda","eats granola for breakfast",5,"times","month","agree-key",60,4.0943445622221
1,979,"truthJudge","vacationed in Switzerland",50,"Julia","vacations in Switzerland",2,"times","10 years","agree-key",0.2,-1.6094379124341
1,720,"truthJudge","smoked",25,"Kathleen","smokes",1,"time","week","agree-key",52,3.95124371858143
2,3553,"truthJudge","drove to work",50,"Angela","drives to work",4,"times","week","agree-key",208,5.33753807970132
2,2660,"truthJudge","hiked",25,"Melinda","hikes",1,"time","year","disagree-key",1,0
2,1773,"truthJudge","drove to work",75,"Daniel","drives to work",5,"times","week","agree-key",260,5.56068163101553
2,2637,"truthJudge","vacationed in Switzerland",25,"John","vacations in Switzerland",1,"time","10 years","disagree-key",0.1,-2.30258509299405
2,1982,"truthJudge","hiked",75,"Sophia","hikes",12,"times","year","agree-key",12,2.484906649788
2,1878,"truthJudge","played computer games",75,"Cameron","plays computer games",7,"times","week","agree-key",364,5.89715386763674
2,3198,"truthJudge","stole",50,"Michelle","steals cars",2,"cars","10 years","agree-key",0.2,-1.6094379124341
2,2645,"truthJudge","played computer games",50,"Gabriel","plays computer games",4,"times","week","agree-key",208,5.33753807970132
2,2062,"truthJudge","smoked",50,"Alicia","smokes",7,"times","week","agree-key",364,5.89715386763674
2,1750,"truthJudge","drank",75,"Greg","drinks beer",15,"beers","month","agree-key",180,5.19295685089021
2,1942,"truthJudge","wrote",75,"Veronica","writes novels",20,"novels","10 years","agree-key",2,0.693147180559945
2,1701,"truthJudge","vacationed in Switzerland",75,"Daniel","vacations in Switzerland",6,"times","10 years","agree-key",0.6,-0.51082562376599
2,2254,"truthJudge","drank",50,"Alexander","drinks beer",5,"beers","month","agree-key",60,4.0943445622221
2,4174,"truthJudge","biked to work",25,"Anthony","bikes to work",2,"times","month","disagree-key",24,3.17805383034795
2,1308,"truthJudge","smoked",75,"Laura","smokes",70,"times","week","agree-key",3640,8.19973896063079
2,3006,"truthJudge","wrote",50,"Lucas","writes poems",5,"poems","5 years","agree-key",1,0
2,2115,"truthJudge","smoked",25,"Stephanie","smokes",1,"time","week","disagree-key",52,3.95124371858143
2,3798,"truthJudge","hiked",50,"Alexander","hikes",4,"times","year","disagree-key",4,1.38629436111989
2,1701,"truthJudge","drove to work",25,"David","drives to work",3,"times","week","agree-key",156,5.04985600724954
2,2742,"truthJudge","wrote",25,"David","writes novels",2,"novels","10 years","agree-key",0.2,-1.6094379124341
2,1892,"truthJudge","wrote",75,"Kathleen","writes poems",30,"poems","5 years","agree-key",6,1.79175946922805
2,1774,"truthJudge","drank",25,"William","drinks beer",1,"beer","month","disagree-key",12,2.484906649788
2,3047,"truthJudge","biked to work",75,"Anthony","bikes to work",24,"times","month","agree-key",288,5.66296048013595
2,2742,"truthJudge","biked to work",50,"Jennifer","bikes to work",6,"times","month","agree-key",72,4.27666611901606
2,3917,"truthJudge","stole",25,"Monica","steals cars",1,"car","10 years","disagree-key",0.1,-2.30258509299405
2,1918,"truthJudge","played computer games",25,"Stephen","plays computer games",2,"times","week","agree-key",104,4.64439089914137
2,1575,"truthJudge","ate granola for breakfast",75,"Maya","eats granola for breakfast",15,"times","month","agree-key",180,5.19295685089021
2,2639,"truthJudge","ran",25,"Lee","runs",3,"times","year","disagree-key",3,1.09861228866811
2,1765,"truthJudge","ran",50,"Tom","runs",25,"times","year","agree-key",25,3.2188758248682
2,3300,"truthJudge","vacationed in Switzerland",50,"Claire","vacations in Switzerland",2,"times","10 years","agree-key",0.2,-1.6094379124341
2,2245,"truthJudge","ran",75,"Julia","runs",120,"times","year","agree-key",120,4.78749174278205
2,2924,"truthJudge","ate granola for breakfast",50,"Michael","eats granola for breakfast",5,"times","month","agree-key",60,4.0943445622221
2,1565,"truthJudge","wrote",25,"Gabriel","writes poems",1,"poem","5 years","disagree-key",0.2,-1.6094379124341
2,1093,"truthJudge","wrote",50,"Eric","writes novels",10,"novels","10 years","agree-key",1,0
2,1301,"truthJudge","stole",75,"Kim","steals cars",5,"cars","10 years","agree-key",0.5,-0.693147180559945
2,2005,"truthJudge","ate granola for breakfast",25,"William","eats granola for breakfast",2,"times","month","disagree-key",24,3.17805383034795
3,4136,"truthJudge","hiked",50,"Anthony","hikes",4,"times","year","agree-key",4,1.38629436111989
3,1687,"truthJudge","ate granola for breakfast",75,"Alexander","eats granola for breakfast",15,"times","month","agree-key",180,5.19295685089021
3,1682,"truthJudge","vacationed in Switzerland",25,"Maya","vacations in Switzerland",1,"time","10 years","agree-key",0.1,-2.30258509299405
3,3482,"truthJudge","hiked",25,"Claire","hikes",1,"time","year","disagree-key",1,0
3,1105,"truthJudge","smoked",50,"William","smokes",7,"times","week","agree-key",364,5.89715386763674
3,940,"truthJudge","ran",75,"Stephen","runs",120,"times","year","agree-key",120,4.78749174278205
3,943,"truthJudge","drove to work",50,"Daniel","drives to work",4,"times","week","agree-key",208,5.33753807970132
3,711,"truthJudge","vacationed in Switzerland",75,"Eric","vacations in Switzerland",6,"times","10 years","agree-key",0.6,-0.51082562376599
3,619,"truthJudge","stole",75,"Gabriel","steals cars",5,"cars","10 years","agree-key",0.5,-0.693147180559945
3,771,"truthJudge","ate granola for breakfast",25,"Jennifer","eats granola for breakfast",2,"times","month","disagree-key",24,3.17805383034795
3,516,"truthJudge","ran",50,"John","runs",25,"times","year","agree-key",25,3.2188758248682
3,1730,"truthJudge","drank",25,"Julia","drinks beer",1,"beer","month","disagree-key",12,2.484906649788
3,649,"truthJudge","drove to work",75,"Gabriel","drives to work",5,"times","week","agree-key",260,5.56068163101553
3,525,"truthJudge","hiked",75,"Anthony","hikes",12,"times","year","disagree-key",12,2.484906649788
3,957,"truthJudge","vacationed in Switzerland",50,"David","vacations in Switzerland",2,"times","10 years","disagree-key",0.2,-1.6094379124341
3,635,"truthJudge","played computer games",75,"Sophia","plays computer games",7,"times","week","agree-key",364,5.89715386763674
3,1189,"truthJudge","played computer games",25,"Lucas","plays computer games",2,"times","week","disagree-key",104,4.64439089914137
3,914,"truthJudge","stole",25,"Lee","steals cars",1,"car","10 years","disagree-key",0.1,-2.30258509299405
3,1625,"truthJudge","smoked",75,"Greg","smokes",70,"times","week","agree-key",3640,8.19973896063079
3,8770,"truthJudge","drove to work",25,"Cameron","drives to work",3,"times","week","agree-key",156,5.04985600724954
3,1054,"truthJudge","drank",75,"Kim","drinks beer",15,"beers","month","agree-key",180,5.19295685089021
3,644,"truthJudge","biked to work",75,"Monica","bikes to work",24,"times","month","agree-key",288,5.66296048013595
3,610,"truthJudge","stole",50,"Alicia","steals cars",2,"cars","10 years","disagree-key",0.2,-1.6094379124341
3,624,"truthJudge","biked to work",50,"Stephanie","bikes to work",6,"times","month","agree-key",72,4.27666611901606
3,583,"truthJudge","wrote",75,"Melinda","writes novels",20,"novels","10 years","agree-key",2,0.693147180559945
3,851,"truthJudge","wrote",25,"Angela","writes poems",1,"poem","5 years","disagree-key",0.2,-1.6094379124341
3,1804,"truthJudge","drank",50,"Veronica","drinks beer",5,"beers","month","agree-key",60,4.0943445622221
3,701,"truthJudge","played computer games",50,"Michelle","plays computer games",4,"times","week","agree-key",208,5.33753807970132
3,2771,"truthJudge","biked to work",25,"Alexander","bikes to work",2,"times","month","disagree-key",24,3.17805383034795
3,798,"truthJudge","wrote",50,"Laura","writes novels",10,"novels","10 years","agree-key",1,0
3,604,"truthJudge","ate granola for breakfast",50,"Kathleen","eats granola for breakfast",5,"times","month","agree-key",60,4.0943445622221
3,593,"truthJudge","wrote",75,"Michael","writes poems",30,"poems","5 years","agree-key",6,1.79175946922805
3,672,"truthJudge","smoked",25,"William","smokes",1,"time","week","disagree-key",52,3.95124371858143
3,656,"truthJudge","wrote",25,"Daniel","writes novels",2,"novels","10 years","agree-key",0.2,-1.6094379124341
3,732,"truthJudge","ran",25,"Tom","runs",3,"times","year","disagree-key",3,1.09861228866811
3,709,"truthJudge","wrote",50,"David","writes poems",5,"poems","5 years","agree-key",1,0
4,3886,"truthJudge","ran",25,"Eric","runs",3,"times","year","agree-key",3,1.09861228866811
4,4789,"truthJudge","ran",50,"David","runs",25,"times","year","agree-key",25,3.2188758248682
4,153,"truthJudge","played computer games",25,"Michael","plays computer games",2,"times","week","agree-key",104,4.64439089914137
4,36,"truthJudge","drank",50,"Anthony","drinks beer",5,"beers","month","agree-key",60,4.0943445622221
4,77,"truthJudge","wrote",75,"Laura","writes novels",20,"novels","10 years","disagree-key",2,0.693147180559945
4,1566,"truthJudge","smoked",50,"Sophia","smokes",7,"times","week","agree-key",364,5.89715386763674
4,301,"truthJudge","smoked",75,"John","smokes",70,"times","week","agree-key",3640,8.19973896063079
4,6645,"truthJudge","vacationed in Switzerland",25,"William","vacations in Switzerland",1,"time","10 years","disagree-key",0.1,-2.30258509299405
4,7539,"truthJudge","vacationed in Switzerland",75,"Lucas","vacations in Switzerland",6,"times","10 years","agree-key",0.6,-0.51082562376599
4,5373,"truthJudge","biked to work",75,"Michelle","bikes to work",24,"times","month","agree-key",288,5.66296048013595
4,2003,"truthJudge","wrote",50,"Julia","writes poems",5,"poems","5 years","agree-key",1,0
4,1325,"truthJudge","played computer games",75,"Cameron","plays computer games",7,"times","week","agree-key",364,5.89715386763674
4,2929,"truthJudge","stole",75,"Monica","steals cars",5,"cars","10 years","agree-key",0.5,-0.693147180559945
4,2537,"truthJudge","biked to work",50,"Alexander","bikes to work",6,"times","month","agree-key",72,4.27666611901606
4,2314,"truthJudge","hiked",50,"David","hikes",4,"times","year","disagree-key",4,1.38629436111989
4,1813,"truthJudge","ran",75,"Kim","runs",120,"times","year","agree-key",120,4.78749174278205
4,2835,"truthJudge","wrote",25,"Claire","writes poems",1,"poem","5 years","disagree-key",0.2,-1.6094379124341
4,3557,"truthJudge","biked to work",25,"Alexander","bikes to work",2,"times","month","disagree-key",24,3.17805383034795
4,4509,"truthJudge","drove to work",25,"Angela","drives to work",3,"times","week","agree-key",156,5.04985600724954
4,3594,"truthJudge","played computer games",50,"Veronica","plays computer games",4,"times","week","agree-key",208,5.33753807970132
4,1951,"truthJudge","stole",25,"Daniel","steals cars",1,"car","10 years","disagree-key",0.1,-2.30258509299405
4,3498,"truthJudge","drove to work",50,"Alicia","drives to work",4,"times","week","agree-key",208,5.33753807970132
4,2932,"truthJudge","ate granola for breakfast",50,"Jennifer","eats granola for breakfast",5,"times","month","disagree-key",60,4.0943445622221
4,3955,"truthJudge","drove to work",75,"Daniel","drives to work",5,"times","week","agree-key",260,5.56068163101553
4,3086,"truthJudge","wrote",50,"Lee","writes novels",10,"novels","10 years","agree-key",1,0
4,4245,"truthJudge","wrote",75,"Stephanie","writes poems",30,"poems","5 years","agree-key",6,1.79175946922805
4,1702,"truthJudge","drank",25,"Melinda","drinks beer",1,"beer","month","disagree-key",12,2.484906649788
4,3616,"truthJudge","vacationed in Switzerland",50,"Tom","vacations in Switzerland",2,"times","10 years","disagree-key",0.2,-1.6094379124341
4,3170,"truthJudge","smoked",25,"Greg","smokes",1,"time","week","disagree-key",52,3.95124371858143
4,3936,"truthJudge","wrote",25,"Maya","writes novels",2,"novels","10 years","disagree-key",0.2,-1.6094379124341
4,2829,"truthJudge","ate granola for breakfast",25,"William","eats granola for breakfast",2,"times","month","disagree-key",24,3.17805383034795
4,2630,"truthJudge","hiked",75,"Gabriel","hikes",12,"times","year","agree-key",12,2.484906649788
4,1705,"truthJudge","hiked",25,"Stephen","hikes",1,"time","year","disagree-key",1,0
4,1648,"truthJudge","stole",50,"Gabriel","steals cars",2,"cars","10 years","disagree-key",0.2,-1.6094379124341
4,1799,"truthJudge","drank",75,"Anthony","drinks beer",15,"beers","month","agree-key",180,5.19295685089021
4,1795,"truthJudge","ate granola for breakfast",75,"Kathleen","eats granola for breakfast",15,"times","month","agree-key",180,5.19295685089021
5,3362,"truthJudge","drank",75,"Michelle","drinks beer",15,"beers","month","agree-key",180,5.19295685089021
5,1420,"truthJudge","wrote",50,"Daniel","writes poems",5,"poems","5 years","agree-key",1,0
5,1669,"truthJudge","wrote",25,"Cameron","writes novels",2,"novels","10 years","disagree-key",0.2,-1.6094379124341
5,3501,"truthJudge","ran",25,"Julia","runs",3,"times","year","disagree-key",3,1.09861228866811
5,2382,"truthJudge","played computer games",25,"Claire","plays computer games",2,"times","week","agree-key",104,4.64439089914137
5,2477,"truthJudge","stole",50,"Alicia","steals cars",2,"cars","10 years","agree-key",0.2,-1.6094379124341
5,1997,"truthJudge","played computer games",75,"Lucas","plays computer games",7,"times","week","agree-key",364,5.89715386763674
5,3444,"truthJudge","wrote",75,"Angela","writes poems",30,"poems","5 years","agree-key",6,1.79175946922805
5,2790,"truthJudge","stole",25,"Michael","steals cars",1,"car","10 years","disagree-key",0.1,-2.30258509299405
5,3133,"truthJudge","drove to work",50,"Daniel","drives to work",4,"times","week","disagree-key",208,5.33753807970132
5,3990,"truthJudge","vacationed in Switzerland",75,"Monica","vacations in Switzerland",6,"times","10 years","agree-key",0.6,-0.51082562376599
5,1869,"truthJudge","smoked",75,"John","smokes",70,"times","week","agree-key",3640,8.19973896063079
5,1221,"truthJudge","wrote",75,"Anthony","writes novels",20,"novels","10 years","agree-key",2,0.693147180559945
5,3004,"truthJudge","drove to work",25,"Alexander","drives to work",3,"times","week","disagree-key",156,5.04985600724954
5,2974,"truthJudge","drank",50,"Gabriel","drinks beer",5,"beers","month","agree-key",60,4.0943445622221
5,2797,"truthJudge","ate granola for breakfast",50,"Alexander","eats granola for breakfast",5,"times","month","agree-key",60,4.0943445622221
5,8013,"truthJudge","drove to work",75,"Eric","drives to work",5,"times","week","agree-key",260,5.56068163101553
5,3342,"truthJudge","vacationed in Switzerland",25,"Maya","vacations in Switzerland",1,"time","10 years","disagree-key",0.1,-2.30258509299405
5,1957,"truthJudge","drank",25,"Anthony","drinks beer",1,"beer","month","disagree-key",12,2.484906649788
5,2182,"truthJudge","biked to work",50,"Tom","bikes to work",6,"times","month","agree-key",72,4.27666611901606
5,1621,"truthJudge","hiked",50,"Stephen","hikes",4,"times","year","agree-key",4,1.38629436111989
5,1062,"truthJudge","smoked",25,"Kathleen","smokes",1,"time","week","disagree-key",52,3.95124371858143
5,1286,"truthJudge","ran",75,"Lee","runs",120,"times","year","agree-key",120,4.78749174278205
5,1589,"truthJudge","stole",75,"Gabriel","steals cars",5,"cars","10 years","agree-key",0.5,-0.693147180559945
5,3205,"truthJudge","ate granola for breakfast",75,"David","eats granola for breakfast",15,"times","month","agree-key",180,5.19295685089021
5,1141,"truthJudge","wrote",50,"Jennifer","writes novels",10,"novels","10 years","agree-key",1,0
5,1310,"truthJudge","biked to work",75,"Laura","bikes to work",24,"times","month","agree-key",288,5.66296048013595
5,1190,"truthJudge","hiked",25,"William","hikes",1,"time","year","disagree-key",1,0
5,1190,"truthJudge","wrote",25,"William","writes poems",1,"poem","5 years","disagree-key",0.2,-1.6094379124341
5,1566,"truthJudge","smoked",50,"David","smokes",7,"times","week","agree-key",364,5.89715386763674
5,2750,"truthJudge","ate granola for breakfast",25,"Veronica","eats granola for breakfast",2,"times","month","disagree-key",24,3.17805383034795
5,870,"truthJudge","hiked",75,"Greg","hikes",12,"times","year","agree-key",12,2.484906649788
5,1366,"truthJudge","biked to work",25,"Kim","bikes to work",2,"times","month","agree-key",24,3.17805383034795
5,2108,"truthJudge","ran",50,"Stephanie","runs",25,"times","year","agree-key",25,3.2188758248682
5,1092,"truthJudge","played computer games",50,"Melinda","plays computer games",4,"times","week","agree-key",208,5.33753807970132
5,1661,"truthJudge","vacationed in Switzerland",50,"Sophia","vacations in Switzerland",2,"times","10 years","agree-key",0.2,-1.6094379124341
6,4203,"truthJudge","biked to work",25,"Jennifer","bikes to work",2,"times","month","agree-key",24,3.17805383034795
6,4917,"truthJudge","vacationed in Switzerland",25,"Monica","vacations in Switzerland",1,"time","10 years","agree-key",0.1,-2.30258509299405
6,1523,"truthJudge","hiked",25,"Cameron","hikes",1,"time","year","agree-key",1,0
6,747,"truthJudge","stole",25,"Kim","steals cars",1,"car","10 years","agree-key",0.1,-2.30258509299405
6,946,"truthJudge","ran",50,"Laura","runs",25,"times","year","agree-key",25,3.2188758248682
6,855,"truthJudge","drank",25,"William","drinks beer",1,"beer","month","agree-key",12,2.484906649788
6,776,"truthJudge","ran",25,"Stephanie","runs",3,"times","year","agree-key",3,1.09861228866811
6,901,"truthJudge","wrote",25,"David","writes poems",1,"poem","5 years","agree-key",0.2,-1.6094379124341
6,1282,"truthJudge","ran",75,"Veronica","runs",120,"times","year","agree-key",120,4.78749174278205
6,816,"truthJudge","ate granola for breakfast",25,"Alicia","eats granola for breakfast",2,"times","month","agree-key",24,3.17805383034795
6,975,"truthJudge","smoked",75,"Julia","smokes",70,"times","week","agree-key",3640,8.19973896063079
6,745,"truthJudge","wrote",75,"Anthony","writes poems",30,"poems","5 years","agree-key",6,1.79175946922805
6,913,"truthJudge","vacationed in Switzerland",75,"Anthony","vacations in Switzerland",6,"times","10 years","agree-key",0.6,-0.51082562376599
6,687,"truthJudge","drank",75,"Eric","drinks beer",15,"beers","month","agree-key",180,5.19295685089021
6,606,"truthJudge","drove to work",25,"Tom","drives to work",3,"times","week","agree-key",156,5.04985600724954
6,739,"truthJudge","drove to work",50,"Alexander","drives to work",4,"times","week","agree-key",208,5.33753807970132
6,1912,"truthJudge","wrote",75,"Michelle","writes novels",20,"novels","10 years","agree-key",2,0.693147180559945
6,248,"truthJudge","drove to work",75,"Greg","drives to work",5,"times","week","agree-key",260,5.56068163101553
6,1903,"truthJudge","stole",75,"Gabriel","steals cars",5,"cars","10 years","agree-key",0.5,-0.693147180559945
6,1279,"truthJudge","ate granola for breakfast",75,"Daniel","eats granola for breakfast",15,"times","month","agree-key",180,5.19295685089021
6,578,"truthJudge","hiked",75,"David","hikes",12,"times","year","agree-key",12,2.484906649788
6,366,"truthJudge","played computer games",50,"Sophia","plays computer games",4,"times","week","agree-key",208,5.33753807970132
6,378,"truthJudge","smoked",25,"John","smokes",1,"time","week","agree-key",52,3.95124371858143
6,114,"truthJudge","wrote",50,"Kathleen","writes poems",5,"poems","5 years","agree-key",1,0
6,1681,"truthJudge","played computer games",75,"Daniel","plays computer games",7,"times","week","agree-key",364,5.89715386763674
6,481,"truthJudge","hiked",50,"Melinda","hikes",4,"times","year","agree-key",4,1.38629436111989
6,646,"truthJudge","drank",50,"Alexander","drinks beer",5,"beers","month","agree-key",60,4.0943445622221
6,993,"truthJudge","smoked",50,"Lucas","smokes",7,"times","week","agree-key",364,5.89715386763674
6,569,"truthJudge","biked to work",50,"William","bikes to work",6,"times","month","agree-key",72,4.27666611901606
6,1314,"truthJudge","stole",50,"Lee","steals cars",2,"cars","10 years","agree-key",0.2,-1.6094379124341
6,647,"truthJudge","wrote",50,"Maya","writes novels",10,"novels","10 years","agree-key",1,0
6,448,"truthJudge","vacationed in Switzerland",50,"Claire","vacations in Switzerland",2,"times","10 years","agree-key",0.2,-1.6094379124341
6,457,"truthJudge","wrote",25,"Michael","writes novels",2,"novels","10 years","agree-key",0.2,-1.6094379124341
6,367,"truthJudge","ate granola for breakfast",50,"Angela","eats granola for breakfast",5,"times","month","agree-key",60,4.0943445622221
6,407,"truthJudge","played computer games",25,"Stephen","plays computer games",2,"times","week","agree-key",104,4.64439089914137
6,45956,"truthJudge","biked to work",75,"Gabriel","bikes to work",24,"times","month","agree-key",288,5.66296048013595
7,5945,"truthJudge","wrote",25,"Angela","writes novels",2,"novels","10 years","agree-key",0.2,-1.6094379124341
7,3349,"truthJudge","ran",50,"Lee","runs",25,"times","year","agree-key",25,3.2188758248682
7,2602,"truthJudge","played computer games",75,"Anthony","plays computer games",7,"times","week","agree-key",364,5.89715386763674
7,2780,"truthJudge","stole",25,"Stephen","steals cars",1,"car","10 years","disagree-key",0.1,-2.30258509299405
7,2971,"truthJudge","wrote",50,"Monica","writes poems",5,"poems","5 years","disagree-key",1,0
7,1375,"truthJudge","wrote",75,"William","writes novels",20,"novels","10 years","agree-key",2,0.693147180559945
7,2115,"truthJudge","drank",75,"Michelle","drinks beer",15,"beers","month","agree-key",180,5.19295685089021
7,2778,"truthJudge","biked to work",25,"Alexander","bikes to work",2,"times","month","disagree-key",24,3.17805383034795
7,2119,"truthJudge","ran",75,"Cameron","runs",120,"times","year","agree-key",120,4.78749174278205
7,2519,"truthJudge","ate granola for breakfast",25,"Maya","eats granola for breakfast",2,"times","month","disagree-key",24,3.17805383034795
7,2372,"truthJudge","wrote",75,"Melinda","writes poems",30,"poems","5 years","disagree-key",6,1.79175946922805
7,1567,"truthJudge","vacationed in Switzerland",75,"Julia","vacations in Switzerland",6,"times","10 years","agree-key",0.6,-0.51082562376599
7,1185,"truthJudge","wrote",50,"David","writes novels",10,"novels","10 years","agree-key",1,0
7,1257,"truthJudge","drank",25,"Sophia","drinks beer",1,"beer","month","disagree-key",12,2.484906649788
7,2498,"truthJudge","biked to work",50,"Kim","bikes to work",6,"times","month","agree-key",72,4.27666611901606
7,2354,"truthJudge","vacationed in Switzerland",50,"Eric","vacations in Switzerland",2,"times","10 years","agree-key",0.2,-1.6094379124341
7,2779,"truthJudge","hiked",25,"Lucas","hikes",1,"time","year","disagree-key",1,0
7,1346,"truthJudge","ran",25,"William","runs",3,"times","year","disagree-key",3,1.09861228866811
7,1946,"truthJudge","vacationed in Switzerland",25,"Daniel","vacations in Switzerland",1,"time","10 years","disagree-key",0.1,-2.30258509299405
7,1639,"truthJudge","smoked",25,"Michael","smokes",1,"time","week","disagree-key",52,3.95124371858143
7,2026,"truthJudge","biked to work",75,"Stephanie","bikes to work",24,"times","month","agree-key",288,5.66296048013595
7,1387,"truthJudge","wrote",25,"Jennifer","writes poems",1,"poem","5 years","disagree-key",0.2,-1.6094379124341
7,2496,"truthJudge","drank",50,"Greg","drinks beer",5,"beers","month","disagree-key",60,4.0943445622221
7,1023,"truthJudge","hiked",50,"Gabriel","hikes",4,"times","year","disagree-key",4,1.38629436111989
7,1556,"truthJudge","ate granola for breakfast",75,"Gabriel","eats granola for breakfast",15,"times","month","agree-key",180,5.19295685089021
7,2207,"truthJudge","played computer games",25,"Alicia","plays computer games",2,"times","week","agree-key",104,4.64439089914137
7,1613,"truthJudge","ate granola for breakfast",50,"Laura","eats granola for breakfast",5,"times","month","disagree-key",60,4.0943445622221
7,2574,"truthJudge","drove to work",50,"Anthony","drives to work",4,"times","week","agree-key",208,5.33753807970132
7,1610,"truthJudge","hiked",75,"David","hikes",12,"times","year","agree-key",12,2.484906649788
7,1196,"truthJudge","stole",75,"Tom","steals cars",5,"cars","10 years","agree-key",0.5,-0.693147180559945
7,1214,"truthJudge","played computer games",50,"Veronica","plays computer games",4,"times","week","agree-key",208,5.33753807970132
7,1413,"truthJudge","smoked",50,"Kathleen","smokes",7,"times","week","agree-key",364,5.89715386763674
7,2275,"truthJudge","drove to work",25,"Alexander","drives to work",3,"times","week","agree-key",156,5.04985600724954
7,1870,"truthJudge","stole",50,"John","steals cars",2,"cars","10 years","disagree-key",0.2,-1.6094379124341
7,1353,"truthJudge","smoked",75,"Claire","smokes",70,"times","week","agree-key",3640,8.19973896063079
7,1102,"truthJudge","drove to work",75,"Daniel","drives to work",5,"times","week","agree-key",260,5.56068163101553
8,3652,"truthJudge","ran",75,"William","runs",120,"times","year","agree-key",120,4.78749174278205
8,2751,"truthJudge","wrote",25,"Alexander","writes poems",1,"poem","5 years","agree-key",0.2,-1.6094379124341
8,3204,"truthJudge","ran",50,"Cameron","runs",25,"times","year","agree-key",25,3.2188758248682
8,2639,"truthJudge","drove to work",50,"Gabriel","drives to work",4,"times","week","agree-key",208,5.33753807970132
8,4674,"truthJudge","ran",25,"Kathleen","runs",3,"times","year","disagree-key",3,1.09861228866811
8,3107,"truthJudge","played computer games",75,"William","plays computer games",7,"times","week","agree-key",364,5.89715386763674
8,2543,"truthJudge","hiked",50,"Eric","hikes",4,"times","year","agree-key",4,1.38629436111989
8,2207,"truthJudge","stole",50,"Alexander","steals cars",2,"cars","10 years","agree-key",0.2,-1.6094379124341
8,2221,"truthJudge","wrote",50,"Sophia","writes novels",10,"novels","10 years","agree-key",1,0
8,1535,"truthJudge","hiked",75,"Claire","hikes",12,"times","year","agree-key",12,2.484906649788
8,1787,"truthJudge","wrote",75,"David","writes novels",20,"novels","10 years","agree-key",2,0.693147180559945
8,5376,"truthJudge","drank",50,"David","drinks beer",5,"beers","month","agree-key",60,4.0943445622221
8,2340,"truthJudge","ate granola for breakfast",75,"Michael","eats granola for breakfast",15,"times","month","agree-key",180,5.19295685089021
8,2038,"truthJudge","vacationed in Switzerland",75,"Tom","vacations in Switzerland",6,"times","10 years","agree-key",0.6,-0.51082562376599
8,2248,"truthJudge","wrote",75,"Anthony","writes poems",30,"poems","5 years","agree-key",6,1.79175946922805
8,4695,"truthJudge","smoked",50,"Angela","smokes",7,"times","week","agree-key",364,5.89715386763674
8,3889,"truthJudge","vacationed in Switzerland",50,"Gabriel","vacations in Switzerland",2,"times","10 years","disagree-key",0.2,-1.6094379124341
8,3148,"truthJudge","played computer games",25,"Anthony","plays computer games",2,"times","week","agree-key",104,4.64439089914137
8,2487,"truthJudge","ate granola for breakfast",50,"Alicia","eats granola for breakfast",5,"times","month","agree-key",60,4.0943445622221
8,2382,"truthJudge","smoked",75,"Michelle","smokes",70,"times","week","agree-key",3640,8.19973896063079
8,2218,"truthJudge","played computer games",50,"Daniel","plays computer games",4,"times","week","agree-key",208,5.33753807970132
8,2750,"truthJudge","ate granola for breakfast",25,"Lucas","eats granola for breakfast",2,"times","month","agree-key",24,3.17805383034795
8,2694,"truthJudge","biked to work",75,"Maya","bikes to work",24,"times","month","agree-key",288,5.66296048013595
8,2236,"truthJudge","drank",25,"Veronica","drinks beer",1,"beer","month","disagree-key",12,2.484906649788
8,2379,"truthJudge","stole",75,"Greg","steals cars",5,"cars","10 years","agree-key",0.5,-0.693147180559945
8,3043,"truthJudge","hiked",25,"Kim","hikes",1,"time","year","disagree-key",1,0
8,2192,"truthJudge","biked to work",50,"John","bikes to work",6,"times","month","agree-key",72,4.27666611901606
8,3485,"truthJudge","stole",25,"Lee","steals cars",1,"car","10 years","disagree-key",0.1,-2.30258509299405
8,2308,"truthJudge","biked to work",25,"Daniel","bikes to work",2,"times","month","agree-key",24,3.17805383034795
8,1812,"truthJudge","smoked",25,"Laura","smokes",1,"time","week","disagree-key",52,3.95124371858143
8,1412,"truthJudge","drank",75,"Julia","drinks beer",15,"beers","month","agree-key",180,5.19295685089021
8,1746,"truthJudge","wrote",25,"Monica","writes novels",2,"novels","10 years","agree-key",0.2,-1.6094379124341
8,2204,"truthJudge","drove to work",75,"Stephanie","drives to work",5,"times","week","agree-key",260,5.56068163101553
8,2414,"truthJudge","drove to work",25,"Melinda","drives to work",3,"times","week","agree-key",156,5.04985600724954
8,1946,"truthJudge","vacationed in Switzerland",25,"Jennifer","vacations in Switzerland",1,"time","10 years","disagree-key",0.1,-2.30258509299405
8,1987,"truthJudge","wrote",50,"Stephen","writes poems",5,"poems","5 years","agree-key",1,0
9,4827,"truthJudge","wrote",75,"William","writes poems",30,"poems","5 years","agree-key",6,1.79175946922805
9,3283,"truthJudge","played computer games",50,"Veronica","plays computer games",4,"times","week","agree-key",208,5.33753807970132
9,2902,"truthJudge","wrote",25,"Stephanie","writes novels",2,"novels","10 years","agree-key",0.2,-1.6094379124341
9,2257,"truthJudge","drank",75,"Lucas","drinks beer",15,"beers","month","agree-key",180,5.19295685089021
9,1815,"truthJudge","wrote",75,"Monica","writes novels",20,"novels","10 years","agree-key",2,0.693147180559945
9,3038,"truthJudge","biked to work",50,"Tom","bikes to work",6,"times","month","agree-key",72,4.27666611901606
9,8658,"truthJudge","hiked",25,"Alicia","hikes",1,"time","year","disagree-key",1,0
9,2918,"truthJudge","ran",25,"Maya","runs",3,"times","year","disagree-key",3,1.09861228866811
9,2687,"truthJudge","biked to work",75,"Stephen","bikes to work",24,"times","month","agree-key",288,5.66296048013595
9,2623,"truthJudge","ate granola for breakfast",75,"Alexander","eats granola for breakfast",15,"times","month","agree-key",180,5.19295685089021
9,2439,"truthJudge","wrote",50,"David","writes poems",5,"poems","5 years","disagree-key",1,0
9,3779,"truthJudge","vacationed in Switzerland",25,"Jennifer","vacations in Switzerland",1,"time","10 years","disagree-key",0.1,-2.30258509299405
9,2370,"truthJudge","ate granola for breakfast",25,"Michelle","eats granola for breakfast",2,"times","month","disagree-key",24,3.17805383034795
9,2618,"truthJudge","drove to work",50,"Gabriel","drives to work",4,"times","week","disagree-key",208,5.33753807970132
9,2147,"truthJudge","smoked",25,"David","smokes",1,"time","week","agree-key",52,3.95124371858143
9,3467,"truthJudge","biked to work",25,"Sophia","bikes to work",2,"times","month","disagree-key",24,3.17805383034795
9,2150,"truthJudge","drank",50,"Kim","drinks beer",5,"beers","month","agree-key",60,4.0943445622221
9,3716,"truthJudge","vacationed in Switzerland",75,"John","vacations in Switzerland",6,"times","10 years","agree-key",0.6,-0.51082562376599
9,3311,"truthJudge","vacationed in Switzerland",50,"Cameron","vacations in Switzerland",2,"times","10 years","disagree-key",0.2,-1.6094379124341
9,2161,"truthJudge","hiked",75,"Claire","hikes",12,"times","year","agree-key",12,2.484906649788
9,1855,"truthJudge","stole",50,"Angela","steals cars",2,"cars","10 years","agree-key",0.2,-1.6094379124341
9,1818,"truthJudge","ran",50,"William","runs",25,"times","year","agree-key",25,3.2188758248682
9,1621,"truthJudge","played computer games",75,"Anthony","plays computer games",7,"times","week","agree-key",364,5.89715386763674
9,2287,"truthJudge","drove to work",75,"Laura","drives to work",5,"times","week","agree-key",260,5.56068163101553
9,4092,"truthJudge","drank",25,"Michael","drinks beer",1,"beer","month","disagree-key",12,2.484906649788
9,1882,"truthJudge","hiked",50,"Lee","hikes",4,"times","year","agree-key",4,1.38629436111989
9,1547,"truthJudge","stole",75,"Alexander","steals cars",5,"cars","10 years","agree-key",0.5,-0.693147180559945
9,1486,"truthJudge","smoked",50,"Daniel","smokes",7,"times","week","agree-key",364,5.89715386763674
9,1996,"truthJudge","stole",25,"Kathleen","steals cars",1,"car","10 years","disagree-key",0.1,-2.30258509299405
9,3315,"truthJudge","drove to work",25,"Melinda","drives to work",3,"times","week","disagree-key",156,5.04985600724954
9,3099,"truthJudge","ate granola for breakfast",50,"Eric","eats granola for breakfast",5,"times","month","disagree-key",60,4.0943445622221
9,1841,"truthJudge","ran",75,"Anthony","runs",120,"times","year","agree-key",120,4.78749174278205
9,2132,"truthJudge","played computer games",25,"Greg","plays computer games",2,"times","week","agree-key",104,4.64439089914137
9,2587,"truthJudge","wrote",25,"Julia","writes poems",1,"poem","5 years","disagree-key",0.2,-1.6094379124341
9,1293,"truthJudge","wrote",50,"Daniel","writes novels",10,"novels","10 years","agree-key",1,0
9,1330,"truthJudge","smoked",75,"Gabriel","smokes",70,"times","week","agree-key",3640,8.19973896063079
10,9406,"truthJudge","ate granola for breakfast",25,"Melinda","eats granola for breakfast",2,"times","month","agree-key",24,3.17805383034795
10,2659,"truthJudge","hiked",75,"Tom","hikes",12,"times","year","agree-key",12,2.484906649788
10,3866,"truthJudge","ran",25,"Claire","runs",3,"times","year","disagree-key",3,1.09861228866811
10,3462,"truthJudge","drank",50,"Greg","drinks beer",5,"beers","month","agree-key",60,4.0943445622221
10,3011,"truthJudge","vacationed in Switzerland",50,"Monica","vacations in Switzerland",2,"times","10 years","agree-key",0.2,-1.6094379124341
10,2188,"truthJudge","smoked",75,"Angela","smokes",70,"times","week","agree-key",3640,8.19973896063079
10,2059,"truthJudge","ran",75,"Julia","runs",120,"times","year","agree-key",120,4.78749174278205
10,2312,"truthJudge","drove to work",50,"Jennifer","drives to work",4,"times","week","agree-key",208,5.33753807970132
10,2801,"truthJudge","wrote",25,"Kathleen","writes poems",1,"poem","5 years","disagree-key",0.2,-1.6094379124341
10,4737,"truthJudge","vacationed in Switzerland",25,"William","vacations in Switzerland",1,"time","10 years","disagree-key",0.1,-2.30258509299405
10,256,"truthJudge","stole",25,"Veronica","steals cars",1,"car","10 years","disagree-key",0.1,-2.30258509299405
10,4605,"truthJudge","played computer games",50,"Cameron","plays computer games",4,"times","week","agree-key",208,5.33753807970132
10,2482,"truthJudge","wrote",75,"Sophia","writes novels",20,"novels","10 years","agree-key",2,0.693147180559945
10,1957,"truthJudge","stole",75,"Laura","steals cars",5,"cars","10 years","agree-key",0.5,-0.693147180559945
10,1695,"truthJudge","drove to work",25,"Anthony","drives to work",3,"times","week","agree-key",156,5.04985600724954
10,1488,"truthJudge","wrote",75,"Kim","writes poems",30,"poems","5 years","agree-key",6,1.79175946922805
10,1616,"truthJudge","smoked",25,"Stephanie","smokes",1,"time","week","disagree-key",52,3.95124371858143
10,3794,"truthJudge","played computer games",75,"David","plays computer games",7,"times","week","agree-key",364,5.89715386763674
10,2026,"truthJudge","smoked",50,"William","smokes",7,"times","week","agree-key",364,5.89715386763674
10,1690,"truthJudge","biked to work",50,"Anthony","bikes to work",6,"times","month","agree-key",72,4.27666611901606
10,1586,"truthJudge","vacationed in Switzerland",75,"Alexander","vacations in Switzerland",6,"times","10 years","agree-key",0.6,-0.51082562376599
10,1433,"truthJudge","drove to work",75,"Gabriel","drives to work",5,"times","week","agree-key",260,5.56068163101553
10,1229,"truthJudge","wrote",50,"Michael","writes novels",10,"novels","10 years","agree-key",1,0
10,1490,"truthJudge","ate granola for breakfast",50,"Lucas","eats granola for breakfast",5,"times","month","agree-key",60,4.0943445622221
10,1454,"truthJudge","wrote",25,"Maya","writes novels",2,"novels","10 years","agree-key",0.2,-1.6094379124341
10,1556,"truthJudge","hiked",25,"Alexander","hikes",1,"time","year","agree-key",1,0
10,2218,"truthJudge","drank",75,"Eric","drinks beer",15,"beers","month","agree-key",180,5.19295685089021
10,1633,"truthJudge","ate granola for breakfast",75,"Alicia","eats granola for breakfast",15,"times","month","agree-key",180,5.19295685089021
10,1551,"truthJudge","biked to work",75,"Daniel","bikes to work",24,"times","month","agree-key",288,5.66296048013595
10,1625,"truthJudge","hiked",50,"Daniel","hikes",4,"times","year","agree-key",4,1.38629436111989
10,1799,"truthJudge","ran",50,"Michelle","runs",25,"times","year","agree-key",25,3.2188758248682
10,1568,"truthJudge","biked to work",25,"John","bikes to work",2,"times","month","agree-key",24,3.17805383034795
10,1967,"truthJudge","wrote",50,"Gabriel","writes poems",5,"poems","5 years","agree-key",1,0
10,2501,"truthJudge","played computer games",25,"Stephen","plays computer games",2,"times","week","agree-key",104,4.64439089914137
10,1347,"truthJudge","stole",50,"Lee","steals cars",2,"cars","10 years","agree-key",0.2,-1.6094379124341
10,3141,"truthJudge","drank",25,"David","drinks beer",1,"beer","month","disagree-key",12,2.484906649788
11,7910,"truthJudge","hiked",25,"Anthony","hikes",1,"time","year","disagree-key",1,0
11,4529,"truthJudge","ate granola for breakfast",50,"William","eats granola for breakfast",5,"times","month","agree-key",60,4.0943445622221
11,4800,"truthJudge","played computer games",75,"Sophia","plays computer games",7,"times","week","agree-key",364,5.89715386763674
11,3773,"truthJudge","wrote",50,"Maya","writes novels",10,"novels","10 years","agree-key",1,0
11,3983,"truthJudge","wrote",50,"Angela","writes poems",5,"poems","5 years","agree-key",1,0
11,3724,"truthJudge","biked to work",25,"Greg","bikes to work",2,"times","month","disagree-key",24,3.17805383034795
11,2984,"truthJudge","smoked",75,"William","smokes",70,"times","week","agree-key",3640,8.19973896063079
11,5614,"truthJudge","biked to work",50,"Alexander","bikes to work",6,"times","month","agree-key",72,4.27666611901606
11,4044,"truthJudge","smoked",25,"Cameron","smokes",1,"time","week","agree-key",52,3.95124371858143
11,3523,"truthJudge","played computer games",50,"Laura","plays computer games",4,"times","week","agree-key",208,5.33753807970132
11,3475,"truthJudge","wrote",75,"John","writes poems",30,"poems","5 years","agree-key",6,1.79175946922805
11,3276,"truthJudge","hiked",75,"Daniel","hikes",12,"times","year","agree-key",12,2.484906649788
11,3358,"truthJudge","drank",75,"Michelle","drinks beer",15,"beers","month","agree-key",180,5.19295685089021
11,2239,"truthJudge","drank",50,"Tom","drinks beer",5,"beers","month","agree-key",60,4.0943445622221
11,2343,"truthJudge","smoked",50,"Michael","smokes",7,"times","week","agree-key",364,5.89715386763674
11,2674,"truthJudge","biked to work",75,"Daniel","bikes to work",24,"times","month","agree-key",288,5.66296048013595
11,2260,"truthJudge","wrote",75,"Lee","writes novels",20,"novels","10 years","agree-key",2,0.693147180559945
11,6690,"truthJudge","vacationed in Switzerland",25,"Veronica","vacations in Switzerland",1,"time","10 years","disagree-key",0.1,-2.30258509299405
11,4232,"truthJudge","ran",50,"Gabriel","runs",25,"times","year","agree-key",25,3.2188758248682
11,3155,"truthJudge","drove to work",75,"Melinda","drives to work",5,"times","week","agree-key",260,5.56068163101553
11,2776,"truthJudge","wrote",25,"Kathleen","writes novels",2,"novels","10 years","agree-key",0.2,-1.6094379124341
11,2502,"truthJudge","stole",50,"Julia","steals cars",2,"cars","10 years","agree-key",0.2,-1.6094379124341
11,2980,"truthJudge","ran",25,"Stephanie","runs",3,"times","year","disagree-key",3,1.09861228866811
11,4539,"truthJudge","vacationed in Switzerland",50,"Claire","vacations in Switzerland",2,"times","10 years","agree-key",0.2,-1.6094379124341
11,2649,"truthJudge","ran",75,"Alicia","runs",120,"times","year","agree-key",120,4.78749174278205
11,6052,"truthJudge","ate granola for breakfast",25,"Alexander","eats granola for breakfast",2,"times","month","disagree-key",24,3.17805383034795
11,2967,"truthJudge","wrote",25,"David","writes poems",1,"poem","5 years","disagree-key",0.2,-1.6094379124341
11,2684,"truthJudge","drove to work",25,"Gabriel","drives to work",3,"times","week","agree-key",156,5.04985600724954
11,3228,"truthJudge","ate granola for breakfast",75,"Monica","eats granola for breakfast",15,"times","month","agree-key",180,5.19295685089021
11,3637,"truthJudge","stole",25,"Jennifer","steals cars",1,"car","10 years","disagree-key",0.1,-2.30258509299405
11,2090,"truthJudge","vacationed in Switzerland",75,"David","vacations in Switzerland",6,"times","10 years","agree-key",0.6,-0.51082562376599
11,2157,"truthJudge","stole",75,"Stephen","steals cars",5,"cars","10 years","agree-key",0.5,-0.693147180559945
11,2051,"truthJudge","drove to work",50,"Lucas","drives to work",4,"times","week","agree-key",208,5.33753807970132
11,3583,"truthJudge","played computer games",25,"Anthony","plays computer games",2,"times","week","agree-key",104,4.64439089914137
11,2975,"truthJudge","drank",25,"Kim","drinks beer",1,"beer","month","agree-key",12,2.484906649788
11,2268,"truthJudge","hiked",50,"Eric","hikes",4,"times","year","agree-key",4,1.38629436111989
12,6939,"truthJudge","drank",25,"Melinda","drinks beer",1,"beer","month","agree-key",12,2.484906649788
12,5399,"truthJudge","ran",50,"Tom","runs",25,"times","year","agree-key",25,3.2188758248682
12,5869,"truthJudge","stole",50,"Greg","steals cars",2,"cars","10 years","agree-key",0.2,-1.6094379124341
12,2478,"truthJudge","wrote",75,"Eric","writes novels",20,"novels","10 years","agree-key",2,0.693147180559945
12,4725,"truthJudge","hiked",25,"Gabriel","hikes",1,"time","year","disagree-key",1,0
12,2982,"truthJudge","played computer games",75,"Lucas","plays computer games",7,"times","week","agree-key",364,5.89715386763674
12,5182,"truthJudge","ate granola for breakfast",25,"David","eats granola for breakfast",2,"times","month","disagree-key",24,3.17805383034795
12,2982,"truthJudge","wrote",25,"John","writes poems",1,"poem","5 years","disagree-key",0.2,-1.6094379124341
12,9646,"truthJudge","drove to work",25,"Lee","drives to work",3,"times","week","agree-key",156,5.04985600724954
12,1980,"truthJudge","wrote",50,"Gabriel","writes novels",10,"novels","10 years","agree-key",1,0
12,3020,"truthJudge","ran",75,"Alexander","runs",120,"times","year","agree-key",120,4.78749174278205
12,2462,"truthJudge","ate granola for breakfast",75,"Michelle","eats granola for breakfast",15,"times","month","agree-key",180,5.19295685089021
12,4605,"truthJudge","biked to work",25,"Julia","bikes to work",2,"times","month","disagree-key",24,3.17805383034795
12,2989,"truthJudge","biked to work",75,"Laura","bikes to work",24,"times","month","agree-key",288,5.66296048013595
12,5766,"truthJudge","stole",25,"William","steals cars",1,"car","10 years","disagree-key",0.1,-2.30258509299405
12,2614,"truthJudge","smoked",50,"Alexander","smokes",7,"times","week","agree-key",364,5.89715386763674
12,5405,"truthJudge","played computer games",25,"Monica","plays computer games",2,"times","week","disagree-key",104,4.64439089914137
12,2525,"truthJudge","smoked",25,"David","smokes",1,"time","week","disagree-key",52,3.95124371858143
12,3574,"truthJudge","played computer games",50,"Stephanie","plays computer games",4,"times","week","agree-key",208,5.33753807970132
12,2638,"truthJudge","drove to work",75,"Anthony","drives to work",5,"times","week","agree-key",260,5.56068163101553
12,1757,"truthJudge","stole",75,"Claire","steals cars",5,"cars","10 years","agree-key",0.5,-0.693147180559945
12,6580,"truthJudge","vacationed in Switzerland",25,"Maya","vacations in Switzerland",1,"time","10 years","disagree-key",0.1,-2.30258509299405
12,1966,"truthJudge","ran",25,"Stephen","runs",3,"times","year","disagree-key",3,1.09861228866811
12,5854,"truthJudge","drank",50,"Daniel","drinks beer",5,"beers","month","agree-key",60,4.0943445622221
12,1965,"truthJudge","wrote",50,"Jennifer","writes poems",5,"poems","5 years","disagree-key",1,0
12,2766,"truthJudge","drank",75,"Alicia","drinks beer",15,"beers","month","agree-key",180,5.19295685089021
12,3223,"truthJudge","ate granola for breakfast",50,"Daniel","eats granola for breakfast",5,"times","month","disagree-key",60,4.0943445622221
12,3899,"truthJudge","wrote",25,"Sophia","writes novels",2,"novels","10 years","agree-key",0.2,-1.6094379124341
12,7158,"truthJudge","hiked",75,"Kim","hikes",12,"times","year","agree-key",12,2.484906649788
12,2685,"truthJudge","biked to work",50,"Veronica","bikes to work",6,"times","month","disagree-key",72,4.27666611901606
12,4301,"truthJudge","vacationed in Switzerland",75,"Angela","vacations in Switzerland",6,"times","10 years","agree-key",0.6,-0.51082562376599
12,2253,"truthJudge","smoked",75,"Anthony","smokes",70,"times","week","agree-key",3640,8.19973896063079
12,3171,"truthJudge","wrote",75,"Michael","writes poems",30,"poems","5 years","agree-key",6,1.79175946922805
12,2679,"truthJudge","drove to work",50,"Kathleen","drives to work",4,"times","week","agree-key",208,5.33753807970132
12,2046,"truthJudge","vacationed in Switzerland",50,"Cameron","vacations in Switzerland",2,"times","10 years","disagree-key",0.2,-1.6094379124341
12,3965,"truthJudge","hiked",50,"William","hikes",4,"times","year","disagree-key",4,1.38629436111989
13,33923,"truthJudge","wrote",75,"Angela","writes poems",30,"poems","5 years","agree-key",6,1.79175946922805
13,12909,"truthJudge","ran",75,"Daniel","runs",120,"times","year","agree-key",120,4.78749174278205
13,9978,"truthJudge","smoked",25,"Julia","smokes",1,"time","week","agree-key",52,3.95124371858143
13,30361,"truthJudge","ate granola for breakfast",50,"Gabriel","eats granola for breakfast",5,"times","month","disagree-key",60,4.0943445622221
13,4923,"truthJudge","biked to work",25,"Michael","bikes to work",2,"times","month","disagree-key",24,3.17805383034795
13,25839,"truthJudge","played computer games",25,"William","plays computer games",2,"times","week","agree-key",104,4.64439089914137
13,11758,"truthJudge","drove to work",25,"William","drives to work",3,"times","week","disagree-key",156,5.04985600724954
13,16635,"truthJudge","stole",50,"Lee","steals cars",2,"cars","10 years","disagree-key",0.2,-1.6094379124341
13,7432,"truthJudge","wrote",75,"David","writes novels",20,"novels","10 years","agree-key",2,0.693147180559945
13,19338,"truthJudge","drove to work",50,"Gabriel","drives to work",4,"times","week","disagree-key",208,5.33753807970132
13,7892,"truthJudge","vacationed in Switzerland",50,"Anthony","vacations in Switzerland",2,"times","10 years","disagree-key",0.2,-1.6094379124341
13,9491,"truthJudge","biked to work",50,"Claire","bikes to work",6,"times","month","disagree-key",72,4.27666611901606
13,5383,"truthJudge","ate granola for breakfast",25,"Michelle","eats granola for breakfast",2,"times","month","disagree-key",24,3.17805383034795
13,32128,"truthJudge","wrote",50,"Kathleen","writes novels",10,"novels","10 years","agree-key",1,0
13,4791,"truthJudge","drove to work",75,"Alexander","drives to work",5,"times","week","agree-key",260,5.56068163101553
13,6632,"truthJudge","vacationed in Switzerland",75,"Melinda","vacations in Switzerland",6,"times","10 years","disagree-key",0.6,-0.51082562376599
13,3204,"truthJudge","stole",25,"Eric","steals cars",1,"car","10 years","disagree-key",0.1,-2.30258509299405
13,7313,"truthJudge","wrote",50,"John","writes poems",5,"poems","5 years","agree-key",1,0
13,2741,"truthJudge","hiked",50,"Daniel","hikes",4,"times","year","disagree-key",4,1.38629436111989
13,10520,"truthJudge","biked to work",75,"Veronica","bikes to work",24,"times","month","agree-key",288,5.66296048013595
13,1869,"truthJudge","hiked",25,"Alexander","hikes",1,"time","year","agree-key",1,0
13,4386,"truthJudge","ate granola for breakfast",75,"Cameron","eats granola for breakfast",15,"times","month","disagree-key",180,5.19295685089021
13,3972,"truthJudge","wrote",25,"Lucas","writes poems",1,"poem","5 years","disagree-key",0.2,-1.6094379124341
13,11765,"truthJudge","drank",50,"Sophia","drinks beer",5,"beers","month","agree-key",60,4.0943445622221
13,4783,"truthJudge","smoked",50,"David","smokes",7,"times","week","agree-key",364,5.89715386763674
13,4534,"truthJudge","ran",25,"Jennifer","runs",3,"times","year","disagree-key",3,1.09861228866811
13,4683,"truthJudge","smoked",75,"Anthony","smokes",70,"times","week","agree-key",3640,8.19973896063079
13,5291,"truthJudge","drank",25,"Maya","drinks beer",1,"beer","month","disagree-key",12,2.484906649788
13,3798,"truthJudge","vacationed in Switzerland",25,"Monica","vacations in Switzerland",1,"time","10 years","disagree-key",0.1,-2.30258509299405
13,8525,"truthJudge","drank",75,"Tom","drinks beer",15,"beers","month","agree-key",180,5.19295685089021
13,6109,"truthJudge","hiked",75,"Stephen","hikes",12,"times","year","agree-key",12,2.484906649788
13,6024,"truthJudge","played computer games",75,"Kim","plays computer games",7,"times","week","agree-key",364,5.89715386763674
13,5042,"truthJudge","played computer games",50,"Alicia","plays computer games",4,"times","week","agree-key",208,5.33753807970132
13,8400,"truthJudge","stole",75,"Laura","steals cars",5,"cars","10 years","disagree-key",0.5,-0.693147180559945
13,4228,"truthJudge","ran",50,"Greg","runs",25,"times","year","agree-key",25,3.2188758248682
13,14122,"truthJudge","wrote",25,"Stephanie","writes novels",2,"novels","10 years","disagree-key",0.2,-1.6094379124341
14,3841,"truthJudge","ran",50,"Daniel","runs",25,"times","year","agree-key",25,3.2188758248682
14,6895,"truthJudge","wrote",25,"Greg","writes poems",1,"poem","5 years","disagree-key",0.2,-1.6094379124341
14,2968,"truthJudge","drank",75,"William","drinks beer",15,"beers","month","agree-key",180,5.19295685089021
14,4904,"truthJudge","ate granola for breakfast",75,"Jennifer","eats granola for breakfast",15,"times","month","agree-key",180,5.19295685089021
14,2936,"truthJudge","biked to work",25,"Alicia","bikes to work",2,"times","month","disagree-key",24,3.17805383034795
14,3390,"truthJudge","smoked",50,"Stephen","smokes",7,"times","week","agree-key",364,5.89715386763674
14,3107,"truthJudge","drove to work",50,"Alexander","drives to work",4,"times","week","agree-key",208,5.33753807970132
14,1734,"truthJudge","drank",25,"Kim","drinks beer",1,"beer","month","disagree-key",12,2.484906649788
14,9106,"truthJudge","vacationed in Switzerland",50,"Veronica","vacations in Switzerland",2,"times","10 years","agree-key",0.2,-1.6094379124341
14,4261,"truthJudge","biked to work",50,"Anthony","bikes to work",6,"times","month","disagree-key",72,4.27666611901606
14,3472,"truthJudge","played computer games",25,"David","plays computer games",2,"times","week","disagree-key",104,4.64439089914137
14,1985,"truthJudge","smoked",25,"Maya","smokes",1,"time","week","disagree-key",52,3.95124371858143
14,2562,"truthJudge","wrote",50,"Melinda","writes poems",5,"poems","5 years","disagree-key",1,0
14,2297,"truthJudge","ran",25,"Sophia","runs",3,"times","year","disagree-key",3,1.09861228866811
14,2850,"truthJudge","stole",50,"Daniel","steals cars",2,"cars","10 years","agree-key",0.2,-1.6094379124341
14,2991,"truthJudge","wrote",25,"William","writes novels",2,"novels","10 years","agree-key",0.2,-1.6094379124341
14,5383,"truthJudge","drank",50,"Angela","drinks beer",5,"beers","month","disagree-key",60,4.0943445622221
14,3801,"truthJudge","vacationed in Switzerland",25,"Monica","vacations in Switzerland",1,"time","10 years","disagree-key",0.1,-2.30258509299405
14,4258,"truthJudge","stole",75,"Michael","steals cars",5,"cars","10 years","agree-key",0.5,-0.693147180559945
14,2545,"truthJudge","vacationed in Switzerland",75,"Kathleen","vacations in Switzerland",6,"times","10 years","agree-key",0.6,-0.51082562376599
14,2768,"truthJudge","biked to work",75,"Anthony","bikes to work",24,"times","month","agree-key",288,5.66296048013595
14,2697,"truthJudge","played computer games",50,"Stephanie","plays computer games",4,"times","week","agree-key",208,5.33753807970132
14,3848,"truthJudge","ate granola for breakfast",25,"Gabriel","eats granola for breakfast",2,"times","month","disagree-key",24,3.17805383034795
14,4609,"truthJudge","drove to work",75,"Eric","drives to work",5,"times","week","agree-key",260,5.56068163101553
14,2137,"truthJudge","ate granola for breakfast",50,"Julia","eats granola for breakfast",5,"times","month","disagree-key",60,4.0943445622221
14,2113,"truthJudge","wrote",75,"Gabriel","writes poems",30,"poems","5 years","agree-key",6,1.79175946922805
14,3602,"truthJudge","drove to work",25,"Claire","drives to work",3,"times","week","agree-key",156,5.04985600724954
14,4099,"truthJudge","stole",25,"John","steals cars",1,"car","10 years","disagree-key",0.1,-2.30258509299405
14,2858,"truthJudge","hiked",75,"Michelle","hikes",12,"times","year","agree-key",12,2.484906649788
14,2603,"truthJudge","wrote",75,"Lucas","writes novels",20,"novels","10 years","agree-key",2,0.693147180559945
14,2037,"truthJudge","smoked",75,"Lee","smokes",70,"times","week","agree-key",3640,8.19973896063079
14,4513,"truthJudge","hiked",50,"Tom","hikes",4,"times","year","agree-key",4,1.38629436111989
14,2437,"truthJudge","hiked",25,"Alexander","hikes",1,"time","year","disagree-key",1,0
14,1814,"truthJudge","ran",75,"David","runs",120,"times","year","agree-key",120,4.78749174278205
14,4328,"truthJudge","played computer games",75,"Laura","plays computer games",7,"times","week","agree-key",364,5.89715386763674
14,2449,"truthJudge","wrote",50,"Cameron","writes novels",10,"novels","10 years","agree-key",1,0
15,7036,"truthJudge","played computer games",25,"Stephen","plays computer games",2,"times","week","agree-key",104,4.64439089914137
15,4961,"truthJudge","drove to work",75,"Julia","drives to work",5,"times","week","agree-key",260,5.56068163101553
15,3931,"truthJudge","hiked",50,"Maya","hikes",4,"times","year","agree-key",4,1.38629436111989
15,5194,"truthJudge","wrote",25,"Daniel","writes poems",1,"poem","5 years","disagree-key",0.2,-1.6094379124341
15,4992,"truthJudge","vacationed in Switzerland",75,"Greg","vacations in Switzerland",6,"times","10 years","agree-key",0.6,-0.51082562376599
15,5850,"truthJudge","smoked",25,"Eric","smokes",1,"time","week","agree-key",52,3.95124371858143
15,3261,"truthJudge","ran",50,"William","runs",25,"times","year","agree-key",25,3.2188758248682
15,2917,"truthJudge","wrote",75,"Sophia","writes poems",30,"poems","5 years","agree-key",6,1.79175946922805
15,4478,"truthJudge","ate granola for breakfast",25,"David","eats granola for breakfast",2,"times","month","disagree-key",24,3.17805383034795
15,4898,"truthJudge","wrote",75,"Kathleen","writes novels",20,"novels","10 years","agree-key",2,0.693147180559945
15,5320,"truthJudge","biked to work",50,"Veronica","bikes to work",6,"times","month","disagree-key",72,4.27666611901606
15,2090,"truthJudge","ran",75,"Daniel","runs",120,"times","year","agree-key",120,4.78749174278205
15,2231,"truthJudge","hiked",25,"Alexander","hikes",1,"time","year","disagree-key",1,0
15,2777,"truthJudge","drank",25,"John","drinks beer",1,"beer","month","disagree-key",12,2.484906649788
15,2683,"truthJudge","ate granola for breakfast",50,"Monica","eats granola for breakfast",5,"times","month","disagree-key",60,4.0943445622221
15,2496,"truthJudge","drank",75,"Angela","drinks beer",15,"beers","month","agree-key",180,5.19295685089021
15,2980,"truthJudge","wrote",25,"Cameron","writes novels",2,"novels","10 years","agree-key",0.2,-1.6094379124341
15,3260,"truthJudge","drove to work",25,"Gabriel","drives to work",3,"times","week","agree-key",156,5.04985600724954
15,3494,"truthJudge","drank",50,"Lee","drinks beer",5,"beers","month","disagree-key",60,4.0943445622221
15,2777,"truthJudge","hiked",75,"Claire","hikes",12,"times","year","agree-key",12,2.484906649788
15,1685,"truthJudge","wrote",50,"David","writes novels",10,"novels","10 years","agree-key",1,0
15,2558,"truthJudge","smoked",50,"Michael","smokes",7,"times","week","agree-key",364,5.89715386763674
15,7675,"truthJudge","stole",25,"Stephanie","steals cars",1,"car","10 years","disagree-key",0.1,-2.30258509299405
15,2340,"truthJudge","wrote",50,"Jennifer","writes poems",5,"poems","5 years","agree-key",1,0
15,2745,"truthJudge","biked to work",25,"Michelle","bikes to work",2,"times","month","disagree-key",24,3.17805383034795
15,2215,"truthJudge","ate granola for breakfast",75,"Melinda","eats granola for breakfast",15,"times","month","agree-key",180,5.19295685089021
15,2278,"truthJudge","vacationed in Switzerland",25,"William","vacations in Switzerland",1,"time","10 years","disagree-key",0.1,-2.30258509299405
15,2387,"truthJudge","stole",75,"Alicia","steals cars",5,"cars","10 years","agree-key",0.5,-0.693147180559945
15,2277,"truthJudge","drove to work",50,"Alexander","drives to work",4,"times","week","agree-key",208,5.33753807970132
15,2184,"truthJudge","biked to work",75,"Tom","bikes to work",24,"times","month","agree-key",288,5.66296048013595
15,2247,"truthJudge","played computer games",50,"Anthony","plays computer games",4,"times","week","agree-key",208,5.33753807970132
15,1919,"truthJudge","smoked",75,"Laura","smokes",70,"times","week","agree-key",3640,8.19973896063079
15,1669,"truthJudge","played computer games",75,"Anthony","plays computer games",7,"times","week","agree-key",364,5.89715386763674
15,3057,"truthJudge","vacationed in Switzerland",50,"Lucas","vacations in Switzerland",2,"times","10 years","disagree-key",0.2,-1.6094379124341
15,2621,"truthJudge","ran",25,"Kim","runs",3,"times","year","disagree-key",3,1.09861228866811
15,3057,"truthJudge","stole",50,"Gabriel","steals cars",2,"cars","10 years","agree-key",0.2,-1.6094379124341
16,6382,"truthJudge","drank",50,"Anthony","drinks beer",5,"beers","month","agree-key",60,4.0943445622221
16,4436,"truthJudge","smoked",75,"Angela","smokes",70,"times","week","agree-key",3640,8.19973896063079
16,3397,"truthJudge","drank",75,"Cameron","drinks beer",15,"beers","month","agree-key",180,5.19295685089021
16,5541,"truthJudge","vacationed in Switzerland",25,"Laura","vacations in Switzerland",1,"time","10 years","disagree-key",0.1,-2.30258509299405
16,4038,"truthJudge","wrote",25,"John","writes poems",1,"poem","5 years","disagree-key",0.2,-1.6094379124341
16,4917,"truthJudge","played computer games",25,"Veronica","plays computer games",2,"times","week","agree-key",104,4.64439089914137
16,4438,"truthJudge","vacationed in Switzerland",50,"Gabriel","vacations in Switzerland",2,"times","10 years","disagree-key",0.2,-1.6094379124341
16,4437,"truthJudge","biked to work",50,"Daniel","bikes to work",6,"times","month","agree-key",72,4.27666611901606
16,4534,"truthJudge","hiked",75,"Michelle","hikes",12,"times","year","agree-key",12,2.484906649788
16,4325,"truthJudge","wrote",50,"Gabriel","writes poems",5,"poems","5 years","agree-key",1,0
16,2999,"truthJudge","ran",75,"Greg","runs",120,"times","year","agree-key",120,4.78749174278205
16,5494,"truthJudge","wrote",50,"William","writes novels",10,"novels","10 years","agree-key",1,0
16,3526,"truthJudge","hiked",25,"David","hikes",1,"time","year","disagree-key",1,0
16,2901,"truthJudge","stole",75,"Lee","steals cars",5,"cars","10 years","agree-key",0.5,-0.693147180559945
16,4758,"truthJudge","ate granola for breakfast",75,"Melinda","eats granola for breakfast",15,"times","month","agree-key",180,5.19295685089021
16,5014,"truthJudge","drove to work",25,"Sophia","drives to work",3,"times","week","agree-key",156,5.04985600724954
16,2821,"truthJudge","wrote",75,"William","writes poems",30,"poems","5 years","agree-key",6,1.79175946922805
16,3765,"truthJudge","hiked",50,"Stephen","hikes",4,"times","year","agree-key",4,1.38629436111989
16,3334,"truthJudge","drove to work",50,"Michael","drives to work",4,"times","week","agree-key",208,5.33753807970132
16,6342,"truthJudge","ran",25,"Alexander","runs",3,"times","year","disagree-key",3,1.09861228866811
16,6165,"truthJudge","ate granola for breakfast",50,"Daniel","eats granola for breakfast",5,"times","month","agree-key",60,4.0943445622221
16,3511,"truthJudge","wrote",75,"Eric","writes novels",20,"novels","10 years","agree-key",2,0.693147180559945
16,5158,"truthJudge","ate granola for breakfast",25,"Kathleen","eats granola for breakfast",2,"times","month","agree-key",24,3.17805383034795
16,4693,"truthJudge","played computer games",75,"Stephanie","plays computer games",7,"times","week","agree-key",364,5.89715386763674
16,7943,"truthJudge","drove to work",75,"Jennifer","drives to work",5,"times","week","agree-key",260,5.56068163101553
16,2438,"truthJudge","stole",50,"Claire","steals cars",2,"cars","10 years","agree-key",0.2,-1.6094379124341
16,3029,"truthJudge","biked to work",75,"David","bikes to work",24,"times","month","agree-key",288,5.66296048013595
16,2837,"truthJudge","wrote",25,"Maya","writes novels",2,"novels","10 years","agree-key",0.2,-1.6094379124341
16,4278,"truthJudge","ran",50,"Monica","runs",25,"times","year","agree-key",25,3.2188758248682
16,3478,"truthJudge","smoked",50,"Julia","smokes",7,"times","week","agree-key",364,5.89715386763674
16,3780,"truthJudge","drank",25,"Kim","drinks beer",1,"beer","month","agree-key",12,2.484906649788
16,3206,"truthJudge","played computer games",50,"Anthony","plays computer games",4,"times","week","agree-key",208,5.33753807970132
16,4901,"truthJudge","vacationed in Switzerland",75,"Lucas","vacations in Switzerland",6,"times","10 years","agree-key",0.6,-0.51082562376599
16,2724,"truthJudge","stole",25,"Tom","steals cars",1,"car","10 years","agree-key",0.1,-2.30258509299405
16,9414,"truthJudge","biked to work",25,"Alexander","bikes to work",2,"times","month","disagree-key",24,3.17805383034795
16,3526,"truthJudge","smoked",25,"Alicia","smokes",1,"time","week","agree-key",52,3.95124371858143
17,10085,"truthJudge","smoked",25,"Laura","smokes",1,"time","week","agree-key",52,3.95124371858143
17,3127,"truthJudge","hiked",50,"Monica","hikes",4,"times","year","agree-key",4,1.38629436111989
17,2144,"truthJudge","stole",50,"Kim","steals cars",2,"cars","10 years","agree-key",0.2,-1.6094379124341
17,1846,"truthJudge","biked to work",75,"Daniel","bikes to work",24,"times","month","agree-key",288,5.66296048013595
17,4634,"truthJudge","vacationed in Switzerland",50,"Alexander","vacations in Switzerland",2,"times","10 years","disagree-key",0.2,-1.6094379124341
17,1570,"truthJudge","stole",25,"Veronica","steals cars",1,"car","10 years","agree-key",0.1,-2.30258509299405
17,2622,"truthJudge","vacationed in Switzerland",25,"Greg","vacations in Switzerland",1,"time","10 years","disagree-key",0.1,-2.30258509299405
17,1317,"truthJudge","drove to work",25,"William","drives to work",3,"times","week","agree-key",156,5.04985600724954
17,1511,"truthJudge","ran",50,"Cameron","runs",25,"times","year","agree-key",25,3.2188758248682
17,1364,"truthJudge","biked to work",25,"Angela","bikes to work",2,"times","month","agree-key",24,3.17805383034795
17,1554,"truthJudge","played computer games",25,"Melinda","plays computer games",2,"times","week","agree-key",104,4.64439089914137
17,1073,"truthJudge","wrote",50,"Gabriel","writes novels",10,"novels","10 years","agree-key",1,0
17,1288,"truthJudge","ran",75,"Stephanie","runs",120,"times","year","agree-key",120,4.78749174278205
17,1875,"truthJudge","drove to work",75,"Stephen","drives to work",5,"times","week","agree-key",260,5.56068163101553
17,2551,"truthJudge","smoked",75,"Michael","smokes",70,"times","week","agree-key",3640,8.19973896063079
17,1119,"truthJudge","played computer games",75,"David","plays computer games",7,"times","week","agree-key",364,5.89715386763674
17,1027,"truthJudge","wrote",25,"Gabriel","writes novels",2,"novels","10 years","agree-key",0.2,-1.6094379124341
17,2690,"truthJudge","drank",25,"Lee","drinks beer",1,"beer","month","disagree-key",12,2.484906649788
17,1305,"truthJudge","wrote",50,"Sophia","writes poems",5,"poems","5 years","agree-key",1,0
17,2131,"truthJudge","wrote",25,"David","writes poems",1,"poem","5 years","disagree-key",0.2,-1.6094379124341
17,2143,"truthJudge","smoked",50,"Lucas","smokes",7,"times","week","agree-key",364,5.89715386763674
17,2096,"truthJudge","drank",50,"Anthony","drinks beer",5,"beers","month","disagree-key",60,4.0943445622221
17,2384,"truthJudge","hiked",25,"William","hikes",1,"time","year","disagree-key",1,0
17,1088,"truthJudge","wrote",75,"Anthony","writes poems",30,"poems","5 years","agree-key",6,1.79175946922805
17,2840,"truthJudge","ate granola for breakfast",75,"Kathleen","eats granola for breakfast",15,"times","month","disagree-key",180,5.19295685089021
17,2081,"truthJudge","biked to work",50,"John","bikes to work",6,"times","month","agree-key",72,4.27666611901606
17,2416,"truthJudge","ate granola for breakfast",50,"Alicia","eats granola for breakfast",5,"times","month","agree-key",60,4.0943445622221
17,1903,"truthJudge","vacationed in Switzerland",75,"Claire","vacations in Switzerland",6,"times","10 years","disagree-key",0.6,-0.51082562376599
17,1681,"truthJudge","drove to work",50,"Maya","drives to work",4,"times","week","agree-key",208,5.33753807970132
17,1373,"truthJudge","hiked",75,"Jennifer","hikes",12,"times","year","agree-key",12,2.484906649788
17,2510,"truthJudge","ate granola for breakfast",25,"Julia","eats granola for breakfast",2,"times","month","disagree-key",24,3.17805383034795
17,2098,"truthJudge","played computer games",50,"Daniel","plays computer games",4,"times","week","agree-key",208,5.33753807970132
17,1255,"truthJudge","drank",75,"Eric","drinks beer",15,"beers","month","disagree-key",180,5.19295685089021
17,2220,"truthJudge","wrote",75,"Alexander","writes novels",20,"novels","10 years","agree-key",2,0.693147180559945
17,1359,"truthJudge","stole",75,"Michelle","steals cars",5,"cars","10 years","agree-key",0.5,-0.693147180559945
17,2488,"truthJudge","ran",25,"Tom","runs",3,"times","year","disagree-key",3,1.09861228866811
18,5814,"truthJudge","wrote",75,"Alexander","writes poems",30,"poems","5 years","agree-key",6,1.79175946922805
18,4031,"truthJudge","drank",25,"Kim","drinks beer",1,"beer","month","disagree-key",12,2.484906649788
18,4628,"truthJudge","ate granola for breakfast",25,"Monica","eats granola for breakfast",2,"times","month","disagree-key",24,3.17805383034795
18,1699,"truthJudge","wrote",75,"Cameron","writes novels",20,"novels","10 years","agree-key",2,0.693147180559945
18,2080,"truthJudge","biked to work",75,"Maya","bikes to work",24,"times","month","agree-key",288,5.66296048013595
18,3179,"truthJudge","hiked",50,"Jennifer","hikes",4,"times","year","disagree-key",4,1.38629436111989
18,1858,"truthJudge","wrote",25,"David","writes novels",2,"novels","10 years","disagree-key",0.2,-1.6094379124341
18,2800,"truthJudge","stole",25,"Daniel","steals cars",1,"car","10 years","disagree-key",0.1,-2.30258509299405
18,2922,"truthJudge","stole",75,"Michael","steals cars",5,"cars","10 years","agree-key",0.5,-0.693147180559945
18,5024,"truthJudge","drove to work",25,"Veronica","drives to work",3,"times","week","agree-key",156,5.04985600724954
18,2967,"truthJudge","drank",50,"Sophia","drinks beer",5,"beers","month","agree-key",60,4.0943445622221
18,2320,"truthJudge","ran",50,"Lucas","runs",25,"times","year","agree-key",25,3.2188758248682
18,3250,"truthJudge","vacationed in Switzerland",50,"John","vacations in Switzerland",2,"times","10 years","disagree-key",0.2,-1.6094379124341
18,1903,"truthJudge","smoked",75,"Melinda","smokes",70,"times","week","agree-key",3640,8.19973896063079
18,2047,"truthJudge","biked to work",50,"Julia","bikes to work",6,"times","month","agree-key",72,4.27666611901606
18,3224,"truthJudge","ate granola for breakfast",75,"Claire","eats granola for breakfast",15,"times","month","agree-key",180,5.19295685089021
18,2517,"truthJudge","ran",25,"Michelle","runs",3,"times","year","disagree-key",3,1.09861228866811
18,2597,"truthJudge","smoked",25,"Laura","smokes",1,"time","week","disagree-key",52,3.95124371858143
18,2406,"truthJudge","vacationed in Switzerland",25,"Alexander","vacations in Switzerland",1,"time","10 years","disagree-key",0.1,-2.30258509299405
18,1747,"truthJudge","hiked",25,"Alicia","hikes",1,"time","year","disagree-key",1,0
18,2230,"truthJudge","played computer games",25,"Tom","plays computer games",2,"times","week","disagree-key",104,4.64439089914137
18,1848,"truthJudge","ran",75,"Lee","runs",120,"times","year","agree-key",120,4.78749174278205
18,2522,"truthJudge","played computer games",75,"Daniel","plays computer games",7,"times","week","agree-key",364,5.89715386763674
18,2173,"truthJudge","hiked",75,"Gabriel","hikes",12,"times","year","agree-key",12,2.484906649788
18,2469,"truthJudge","wrote",50,"Greg","writes novels",10,"novels","10 years","agree-key",1,0
18,3520,"truthJudge","wrote",50,"Stephen","writes poems",5,"poems","5 years","agree-key",1,0
18,2233,"truthJudge","drank",75,"Stephanie","drinks beer",15,"beers","month","agree-key",180,5.19295685089021
18,2390,"truthJudge","drove to work",50,"Eric","drives to work",4,"times","week","agree-key",208,5.33753807970132
18,2361,"truthJudge","biked to work",25,"Gabriel","bikes to work",2,"times","month","disagree-key",24,3.17805383034795
18,1766,"truthJudge","ate granola for breakfast",50,"Angela","eats granola for breakfast",5,"times","month","agree-key",60,4.0943445622221
18,2155,"truthJudge","played computer games",50,"William","plays computer games",4,"times","week","agree-key",208,5.33753807970132
18,3490,"truthJudge","drove to work",75,"Kathleen","drives to work",5,"times","week","agree-key",260,5.56068163101553
18,3572,"truthJudge","smoked",50,"William","smokes",7,"times","week","agree-key",364,5.89715386763674
18,2515,"truthJudge","vacationed in Switzerland",75,"Anthony","vacations in Switzerland",6,"times","10 years","agree-key",0.6,-0.51082562376599
18,5917,"truthJudge","wrote",25,"Anthony","writes poems",1,"poem","5 years","agree-key",0.2,-1.6094379124341
18,7717,"truthJudge","stole",50,"David","steals cars",2,"cars","10 years","disagree-key",0.2,-1.6094379124341
19,6005,"truthJudge","smoked",50,"Melinda","smokes",7,"times","week","agree-key",364,5.89715386763674
19,4792,"truthJudge","ran",25,"Jennifer","runs",3,"times","year","agree-key",3,1.09861228866811
19,4155,"truthJudge","ate granola for breakfast",50,"John","eats granola for breakfast",5,"times","month","agree-key",60,4.0943445622221
19,2690,"truthJudge","drove to work",50,"Cameron","drives to work",4,"times","week","agree-key",208,5.33753807970132
19,2976,"truthJudge","played computer games",75,"Veronica","plays computer games",7,"times","week","agree-key",364,5.89715386763674
19,3980,"truthJudge","hiked",25,"Anthony","hikes",1,"time","year","disagree-key",1,0
19,5424,"truthJudge","biked to work",50,"Lucas","bikes to work",6,"times","month","agree-key",72,4.27666611901606
19,3117,"truthJudge","vacationed in Switzerland",75,"Stephanie","vacations in Switzerland",6,"times","10 years","agree-key",0.6,-0.51082562376599
19,1891,"truthJudge","ate granola for breakfast",75,"Anthony","eats granola for breakfast",15,"times","month","agree-key",180,5.19295685089021
19,2488,"truthJudge","vacationed in Switzerland",50,"Stephen","vacations in Switzerland",2,"times","10 years","disagree-key",0.2,-1.6094379124341
19,2718,"truthJudge","smoked",75,"Alexander","smokes",70,"times","week","agree-key",3640,8.19973896063079
19,3164,"truthJudge","vacationed in Switzerland",25,"Daniel","vacations in Switzerland",1,"time","10 years","disagree-key",0.1,-2.30258509299405
19,2332,"truthJudge","ran",50,"Michelle","runs",25,"times","year","agree-key",25,3.2188758248682
19,2098,"truthJudge","wrote",75,"Monica","writes novels",20,"novels","10 years","agree-key",2,0.693147180559945
19,6897,"truthJudge","drank",50,"Sophia","drinks beer",5,"beers","month","agree-key",60,4.0943445622221
19,2147,"truthJudge","played computer games",50,"Lee","plays computer games",4,"times","week","agree-key",208,5.33753807970132
19,1806,"truthJudge","wrote",25,"Julia","writes poems",1,"poem","5 years","disagree-key",0.2,-1.6094379124341
19,3779,"truthJudge","stole",75,"Claire","steals cars",5,"cars","10 years","disagree-key",0.5,-0.693147180559945
19,1710,"truthJudge","stole",50,"Eric","steals cars",2,"cars","10 years","disagree-key",0.2,-1.6094379124341
19,2503,"truthJudge","hiked",50,"Michael","hikes",4,"times","year","agree-key",4,1.38629436111989
19,2509,"truthJudge","drank",25,"Greg","drinks beer",1,"beer","month","disagree-key",12,2.484906649788
19,4160,"truthJudge","biked to work",25,"Gabriel","bikes to work",2,"times","month","disagree-key",24,3.17805383034795
19,2176,"truthJudge","drove to work",75,"Kim","drives to work",5,"times","week","agree-key",260,5.56068163101553
19,3523,"truthJudge","played computer games",25,"Alicia","plays computer games",2,"times","week","agree-key",104,4.64439089914137
19,2391,"truthJudge","drank",75,"David","drinks beer",15,"beers","month","agree-key",180,5.19295685089021
19,1490,"truthJudge","stole",25,"Alexander","steals cars",1,"car","10 years","disagree-key",0.1,-2.30258509299405
19,2177,"truthJudge","ran",75,"Daniel","runs",120,"times","year","agree-key",120,4.78749174278205
19,1596,"truthJudge","wrote",75,"Tom","writes poems",30,"poems","5 years","agree-key",6,1.79175946922805
19,1980,"truthJudge","ate granola for breakfast",25,"Laura","eats granola for breakfast",2,"times","month","disagree-key",24,3.17805383034795
19,1426,"truthJudge","biked to work",75,"Gabriel","bikes to work",24,"times","month","agree-key",288,5.66296048013595
19,1247,"truthJudge","wrote",25,"William","writes novels",2,"novels","10 years","disagree-key",0.2,-1.6094379124341
19,2018,"truthJudge","smoked",25,"Angela","smokes",1,"time","week","disagree-key",52,3.95124371858143
19,1833,"truthJudge","hiked",75,"William","hikes",12,"times","year","agree-key",12,2.484906649788
19,1771,"truthJudge","drove to work",25,"Kathleen","drives to work",3,"times","week","agree-key",156,5.04985600724954
19,3389,"truthJudge","wrote",50,"David","writes poems",5,"poems","5 years","disagree-key",1,0
19,1463,"truthJudge","wrote",50,"Maya","writes novels",10,"novels","10 years","agree-key",1,0
20,4035,"truthJudge","wrote",75,"Kathleen","writes poems",30,"poems","5 years","agree-key",6,1.79175946922805
20,2477,"truthJudge","hiked",50,"Monica","hikes",4,"times","year","agree-key",4,1.38629436111989
20,2486,"truthJudge","hiked",25,"Anthony","hikes",1,"time","year","agree-key",1,0
20,1919,"truthJudge","smoked",25,"William","smokes",1,"time","week","disagree-key",52,3.95124371858143
20,1270,"truthJudge","smoked",75,"Claire","smokes",70,"times","week","agree-key",3640,8.19973896063079
20,2533,"truthJudge","biked to work",25,"Sophia","bikes to work",2,"times","month","disagree-key",24,3.17805383034795
20,2174,"truthJudge","drove to work",50,"John","drives to work",4,"times","week","agree-key",208,5.33753807970132
20,2478,"truthJudge","wrote",25,"Michelle","writes poems",1,"poem","5 years","agree-key",0.2,-1.6094379124341
20,1182,"truthJudge","wrote",75,"Daniel","writes novels",20,"novels","10 years","agree-key",2,0.693147180559945
20,2997,"truthJudge","played computer games",50,"Tom","plays computer games",4,"times","week","disagree-key",208,5.33753807970132
20,1717,"truthJudge","vacationed in Switzerland",75,"Kim","vacations in Switzerland",6,"times","10 years","agree-key",0.6,-0.51082562376599
20,1782,"truthJudge","stole",50,"Alexander","steals cars",2,"cars","10 years","agree-key",0.2,-1.6094379124341
20,1279,"truthJudge","stole",75,"David","steals cars",5,"cars","10 years","agree-key",0.5,-0.693147180559945
20,2086,"truthJudge","ran",75,"Lucas","runs",120,"times","year","agree-key",120,4.78749174278205
20,1789,"truthJudge","smoked",50,"Gabriel","smokes",7,"times","week","agree-key",364,5.89715386763674
20,6126,"truthJudge","vacationed in Switzerland",50,"Melinda","vacations in Switzerland",2,"times","10 years","agree-key",0.2,-1.6094379124341
20,1422,"truthJudge","wrote",50,"Alicia","writes poems",5,"poems","5 years","agree-key",1,0
20,1742,"truthJudge","drank",50,"Eric","drinks beer",5,"beers","month","agree-key",60,4.0943445622221
20,1310,"truthJudge","wrote",50,"Laura","writes novels",10,"novels","10 years","agree-key",1,0
20,1934,"truthJudge","ran",25,"Maya","runs",3,"times","year","disagree-key",3,1.09861228866811
20,1261,"truthJudge","stole",25,"Gabriel","steals cars",1,"car","10 years","agree-key",0.1,-2.30258509299405
20,3006,"truthJudge","drove to work",75,"Daniel","drives to work",5,"times","week","agree-key",260,5.56068163101553
20,2878,"truthJudge","drank",25,"Veronica","drinks beer",1,"beer","month","agree-key",12,2.484906649788
20,1966,"truthJudge","played computer games",25,"Cameron","plays computer games",2,"times","week","agree-key",104,4.64439089914137
20,1310,"truthJudge","hiked",75,"William","hikes",12,"times","year","agree-key",12,2.484906649788
20,1862,"truthJudge","drove to work",25,"Stephen","drives to work",3,"times","week","agree-key",156,5.04985600724954
20,3630,"truthJudge","ate granola for breakfast",50,"Michael","eats granola for breakfast",5,"times","month","disagree-key",60,4.0943445622221
20,1965,"truthJudge","ate granola for breakfast",75,"Jennifer","eats granola for breakfast",15,"times","month","agree-key",180,5.19295685089021
20,2942,"truthJudge","vacationed in Switzerland",25,"Lee","vacations in Switzerland",1,"time","10 years","disagree-key",0.1,-2.30258509299405
20,3510,"truthJudge","biked to work",50,"Greg","bikes to work",6,"times","month","agree-key",72,4.27666611901606
20,1213,"truthJudge","biked to work",75,"David","bikes to work",24,"times","month","agree-key",288,5.66296048013595
20,2262,"truthJudge","ran",50,"Anthony","runs",25,"times","year","agree-key",25,3.2188758248682
20,943,"truthJudge","drank",75,"Julia","drinks beer",15,"beers","month","agree-key",180,5.19295685089021
20,1094,"truthJudge","wrote",25,"Alexander","writes novels",2,"novels","10 years","agree-key",0.2,-1.6094379124341
20,1389,"truthJudge","played computer games",75,"Angela","plays computer games",7,"times","week","agree-key",364,5.89715386763674
20,1981,"truthJudge","ate granola for breakfast",25,"Stephanie","eats granola for breakfast",2,"times","month","disagree-key",24,3.17805383034795
21,3369,"truthJudge","stole",25,"Lucas","steals cars",1,"car","10 years","disagree-key",0.1,-2.30258509299405
21,2638,"truthJudge","ran",25,"Eric","runs",3,"times","year","agree-key",3,1.09861228866811
21,4987,"truthJudge","stole",50,"Alicia","steals cars",2,"cars","10 years","agree-key",0.2,-1.6094379124341
21,2812,"truthJudge","drove to work",25,"Daniel","drives to work",3,"times","week","agree-key",156,5.04985600724954
21,3041,"truthJudge","wrote",50,"William","writes poems",5,"poems","5 years","agree-key",1,0
21,7973,"truthJudge","biked to work",25,"Melinda","bikes to work",2,"times","month","disagree-key",24,3.17805383034795
21,2524,"truthJudge","drank",75,"David","drinks beer",15,"beers","month","agree-key",180,5.19295685089021
21,4004,"truthJudge","played computer games",75,"Daniel","plays computer games",7,"times","week","agree-key",364,5.89715386763674
21,2465,"truthJudge","played computer games",25,"Greg","plays computer games",2,"times","week","agree-key",104,4.64439089914137
21,6218,"truthJudge","vacationed in Switzerland",50,"Julia","vacations in Switzerland",2,"times","10 years","disagree-key",0.2,-1.6094379124341
21,2537,"truthJudge","drove to work",75,"Anthony","drives to work",5,"times","week","agree-key",260,5.56068163101553
21,2694,"truthJudge","drank",25,"David","drinks beer",1,"beer","month","disagree-key",12,2.484906649788
21,3242,"truthJudge","biked to work",50,"John","bikes to work",6,"times","month","disagree-key",72,4.27666611901606
21,2205,"truthJudge","hiked",50,"Jennifer","hikes",4,"times","year","agree-key",4,1.38629436111989
21,3523,"truthJudge","biked to work",75,"Lee","bikes to work",24,"times","month","agree-key",288,5.66296048013595
21,2332,"truthJudge","hiked",75,"Gabriel","hikes",12,"times","year","agree-key",12,2.484906649788
21,2238,"truthJudge","hiked",25,"Michael","hikes",1,"time","year","disagree-key",1,0
21,3827,"truthJudge","smoked",50,"Alexander","smokes",7,"times","week","agree-key",364,5.89715386763674
21,2596,"truthJudge","vacationed in Switzerland",25,"Tom","vacations in Switzerland",1,"time","10 years","disagree-key",0.1,-2.30258509299405
21,1796,"truthJudge","played computer games",50,"Michelle","plays computer games",4,"times","week","agree-key",208,5.33753807970132
21,3198,"truthJudge","stole",75,"Alexander","steals cars",5,"cars","10 years","agree-key",0.5,-0.693147180559945
21,4014,"truthJudge","wrote",75,"Claire","writes poems",30,"poems","5 years","agree-key",6,1.79175946922805
21,1568,"truthJudge","ran",50,"Veronica","runs",25,"times","year","agree-key",25,3.2188758248682
21,1534,"truthJudge","ran",75,"Sophia","runs",120,"times","year","agree-key",120,4.78749174278205
21,1724,"truthJudge","wrote",75,"Stephanie","writes novels",20,"novels","10 years","agree-key",2,0.693147180559945
21,5146,"truthJudge","ate granola for breakfast",25,"William","eats granola for breakfast",2,"times","month","disagree-key",24,3.17805383034795
21,2146,"truthJudge","smoked",75,"Angela","smokes",70,"times","week","agree-key",3640,8.19973896063079
21,1522,"truthJudge","vacationed in Switzerland",75,"Laura","vacations in Switzerland",6,"times","10 years","agree-key",0.6,-0.51082562376599
21,6393,"truthJudge","wrote",25,"Stephen","writes poems",1,"poem","5 years","disagree-key",0.2,-1.6094379124341
21,2943,"truthJudge","ate granola for breakfast",75,"Kathleen","eats granola for breakfast",15,"times","month","agree-key",180,5.19295685089021
21,2596,"truthJudge","wrote",25,"Anthony","writes novels",2,"novels","10 years","agree-key",0.2,-1.6094379124341
21,4817,"truthJudge","smoked",25,"Maya","smokes",1,"time","week","agree-key",52,3.95124371858143
21,1681,"truthJudge","ate granola for breakfast",50,"Cameron","eats granola for breakfast",5,"times","month","agree-key",60,4.0943445622221
21,5708,"truthJudge","drank",50,"Gabriel","drinks beer",5,"beers","month","agree-key",60,4.0943445622221
21,1351,"truthJudge","wrote",50,"Kim","writes novels",10,"novels","10 years","agree-key",1,0
21,2267,"truthJudge","drove to work",50,"Monica","drives to work",4,"times","week","agree-key",208,5.33753807970132
22,9595,"truthJudge","played computer games",25,"Jennifer","plays computer games",2,"times","week","agree-key",104,4.64439089914137
22,6602,"truthJudge","played computer games",50,"Kim","plays computer games",4,"times","week","agree-key",208,5.33753807970132
22,8267,"truthJudge","wrote",25,"Michelle","writes novels",2,"novels","10 years","disagree-key",0.2,-1.6094379124341
22,7037,"truthJudge","smoked",50,"John","smokes",7,"times","week","agree-key",364,5.89715386763674
22,12515,"truthJudge","vacationed in Switzerland",25,"William","vacations in Switzerland",1,"time","10 years","agree-key",0.1,-2.30258509299405
22,7326,"truthJudge","ran",25,"Daniel","runs",3,"times","year","agree-key",3,1.09861228866811
22,5688,"truthJudge","vacationed in Switzerland",75,"Julia","vacations in Switzerland",6,"times","10 years","agree-key",0.6,-0.51082562376599
22,18452,"truthJudge","ate granola for breakfast",50,"Gabriel","eats granola for breakfast",5,"times","month","agree-key",60,4.0943445622221
22,9734,"truthJudge","biked to work",25,"Gabriel","bikes to work",2,"times","month","agree-key",24,3.17805383034795
22,4165,"truthJudge","vacationed in Switzerland",50,"Angela","vacations in Switzerland",2,"times","10 years","agree-key",0.2,-1.6094379124341
22,4855,"truthJudge","biked to work",75,"Daniel","bikes to work",24,"times","month","agree-key",288,5.66296048013595
22,3238,"truthJudge","wrote",25,"Alicia","writes poems",1,"poem","5 years","disagree-key",0.2,-1.6094379124341
22,4669,"truthJudge","drank",25,"Melinda","drinks beer",1,"beer","month","disagree-key",12,2.484906649788
22,5166,"truthJudge","stole",25,"Stephen","steals cars",1,"car","10 years","disagree-key",0.1,-2.30258509299405
22,3684,"truthJudge","hiked",50,"Stephanie","hikes",4,"times","year","agree-key",4,1.38629436111989
22,6035,"truthJudge","hiked",25,"Kathleen","hikes",1,"time","year","disagree-key",1,0
22,4761,"truthJudge","wrote",50,"Anthony","writes novels",10,"novels","10 years","agree-key",1,0
22,2759,"truthJudge","drove to work",25,"William","drives to work",3,"times","week","agree-key",156,5.04985600724954
22,4021,"truthJudge","drank",50,"Michael","drinks beer",5,"beers","month","agree-key",60,4.0943445622221
22,5093,"truthJudge","wrote",50,"Alexander","writes poems",5,"poems","5 years","disagree-key",1,0
22,4972,"truthJudge","drove to work",75,"Sophia","drives to work",5,"times","week","agree-key",260,5.56068163101553
22,7830,"truthJudge","hiked",75,"Laura","hikes",12,"times","year","agree-key",12,2.484906649788
22,9583,"truthJudge","stole",75,"Eric","steals cars",5,"cars","10 years","agree-key",0.5,-0.693147180559945
22,3516,"truthJudge","drank",75,"Cameron","drinks beer",15,"beers","month","agree-key",180,5.19295685089021
22,4927,"truthJudge","drove to work",50,"Lucas","drives to work",4,"times","week","agree-key",208,5.33753807970132
22,6037,"truthJudge","ate granola for breakfast",25,"David","eats granola for breakfast",2,"times","month","agree-key",24,3.17805383034795
22,6730,"truthJudge","played computer games",75,"Anthony","plays computer games",7,"times","week","agree-key",364,5.89715386763674
22,3639,"truthJudge","ran",50,"Greg","runs",25,"times","year","agree-key",25,3.2188758248682
22,3805,"truthJudge","wrote",75,"Alexander","writes novels",20,"novels","10 years","agree-key",2,0.693147180559945
22,4853,"truthJudge","stole",50,"Claire","steals cars",2,"cars","10 years","agree-key",0.2,-1.6094379124341
22,4487,"truthJudge","smoked",75,"Veronica","smokes",70,"times","week","agree-key",3640,8.19973896063079
22,6173,"truthJudge","smoked",25,"Lee","smokes",1,"time","week","disagree-key",52,3.95124371858143
22,2606,"truthJudge","wrote",75,"David","writes poems",30,"poems","5 years","agree-key",6,1.79175946922805
22,3430,"truthJudge","ran",75,"Maya","runs",120,"times","year","agree-key",120,4.78749174278205
22,30940,"truthJudge","ate granola for breakfast",75,"Tom","eats granola for breakfast",15,"times","month","agree-key",180,5.19295685089021
22,3190,"truthJudge","biked to work",50,"Monica","bikes to work",6,"times","month","agree-key",72,4.27666611901606
23,10812,"truthJudge","hiked",75,"Michael","hikes",12,"times","year","agree-key",12,2.484906649788
23,10546,"truthJudge","vacationed in Switzerland",25,"Alicia","vacations in Switzerland",1,"time","10 years","disagree-key",0.1,-2.30258509299405
23,4334,"truthJudge","smoked",25,"Lee","smokes",1,"time","week","disagree-key",52,3.95124371858143
23,3549,"truthJudge","ran",75,"William","runs",120,"times","year","agree-key",120,4.78749174278205
23,6276,"truthJudge","biked to work",50,"Anthony","bikes to work",6,"times","month","agree-key",72,4.27666611901606
23,6207,"truthJudge","drank",75,"Gabriel","drinks beer",15,"beers","month","agree-key",180,5.19295685089021
23,4194,"truthJudge","ran",50,"Michelle","runs",25,"times","year","agree-key",25,3.2188758248682
23,6414,"truthJudge","drove to work",25,"Tom","drives to work",3,"times","week","agree-key",156,5.04985600724954
23,3659,"truthJudge","ran",25,"Maya","runs",3,"times","year","disagree-key",3,1.09861228866811
23,5878,"truthJudge","drank",50,"Veronica","drinks beer",5,"beers","month","agree-key",60,4.0943445622221
23,3560,"truthJudge","stole",25,"Cameron","steals cars",1,"car","10 years","disagree-key",0.1,-2.30258509299405
23,7302,"truthJudge","wrote",50,"Alexander","writes poems",5,"poems","5 years","disagree-key",1,0
23,9155,"truthJudge","ate granola for breakfast",50,"Kathleen","eats granola for breakfast",5,"times","month","agree-key",60,4.0943445622221
23,7430,"truthJudge","played computer games",75,"Kim","plays computer games",7,"times","week","agree-key",364,5.89715386763674
23,10184,"truthJudge","drank",25,"William","drinks beer",1,"beer","month","disagree-key",12,2.484906649788
23,6677,"truthJudge","hiked",50,"Daniel","hikes",4,"times","year","agree-key",4,1.38629436111989
23,5494,"truthJudge","vacationed in Switzerland",75,"Laura","vacations in Switzerland",6,"times","10 years","agree-key",0.6,-0.51082562376599
23,5392,"truthJudge","hiked",25,"David","hikes",1,"time","year","disagree-key",1,0
23,18042,"truthJudge","played computer games",25,"Angela","plays computer games",2,"times","week","agree-key",104,4.64439089914137
23,7959,"truthJudge","biked to work",25,"Greg","bikes to work",2,"times","month","agree-key",24,3.17805383034795
23,3373,"truthJudge","wrote",25,"Melinda","writes novels",2,"novels","10 years","agree-key",0.2,-1.6094379124341
23,3918,"truthJudge","stole",75,"Alexander","steals cars",5,"cars","10 years","agree-key",0.5,-0.693147180559945
23,18100,"truthJudge","smoked",75,"Stephen","smokes",70,"times","week","agree-key",3640,8.19973896063079
23,3968,"truthJudge","played computer games",50,"John","plays computer games",4,"times","week","agree-key",208,5.33753807970132
23,4149,"truthJudge","drove to work",50,"Stephanie","drives to work",4,"times","week","agree-key",208,5.33753807970132
23,7449,"truthJudge","ate granola for breakfast",25,"Claire","eats granola for breakfast",2,"times","month","disagree-key",24,3.17805383034795
23,6376,"truthJudge","wrote",50,"Gabriel","writes novels",10,"novels","10 years","agree-key",1,0
23,4051,"truthJudge","drove to work",75,"Anthony","drives to work",5,"times","week","agree-key",260,5.56068163101553
23,3784,"truthJudge","ate granola for breakfast",75,"Monica","eats granola for breakfast",15,"times","month","agree-key",180,5.19295685089021
23,7008,"truthJudge","stole",50,"David","steals cars",2,"cars","10 years","disagree-key",0.2,-1.6094379124341
23,4378,"truthJudge","biked to work",75,"Eric","bikes to work",24,"times","month","agree-key",288,5.66296048013595
23,3391,"truthJudge","smoked",50,"Daniel","smokes",7,"times","week","agree-key",364,5.89715386763674
23,2856,"truthJudge","wrote",75,"Lucas","writes novels",20,"novels","10 years","agree-key",2,0.693147180559945
23,2822,"truthJudge","wrote",75,"Sophia","writes poems",30,"poems","5 years","agree-key",6,1.79175946922805
23,5605,"truthJudge","vacationed in Switzerland",50,"Jennifer","vacations in Switzerland",2,"times","10 years","disagree-key",0.2,-1.6094379124341
23,4708,"truthJudge","wrote",25,"Julia","writes poems",1,"poem","5 years","disagree-key",0.2,-1.6094379124341
24,12252,"truthJudge","biked to work",25,"Kathleen","bikes to work",2,"times","month","agree-key",24,3.17805383034795
24,1948,"truthJudge","smoked",25,"Anthony","smokes",1,"time","week","agree-key",52,3.95124371858143
24,3297,"truthJudge","vacationed in Switzerland",50,"Eric","vacations in Switzerland",2,"times","10 years","agree-key",0.2,-1.6094379124341
24,9943,"truthJudge","played computer games",25,"Jennifer","plays computer games",2,"times","week","agree-key",104,4.64439089914137
24,3938,"truthJudge","played computer games",50,"Maya","plays computer games",4,"times","week","agree-key",208,5.33753807970132
24,3981,"truthJudge","ate granola for breakfast",25,"Cameron","eats granola for breakfast",2,"times","month","agree-key",24,3.17805383034795
24,4363,"truthJudge","ran",75,"Monica","runs",120,"times","year","agree-key",120,4.78749174278205
24,3282,"truthJudge","hiked",50,"Stephanie","hikes",4,"times","year","agree-key",4,1.38629436111989
24,4865,"truthJudge","wrote",25,"William","writes novels",2,"novels","10 years","agree-key",0.2,-1.6094379124341
24,4101,"truthJudge","stole",75,"John","steals cars",5,"cars","10 years","agree-key",0.5,-0.693147180559945
24,8537,"truthJudge","hiked",25,"Angela","hikes",1,"time","year","disagree-key",1,0
24,2031,"truthJudge","hiked",75,"Stephen","hikes",12,"times","year","agree-key",12,2.484906649788
24,6556,"truthJudge","biked to work",75,"Melinda","bikes to work",24,"times","month","agree-key",288,5.66296048013595
24,4414,"truthJudge","stole",50,"Tom","steals cars",2,"cars","10 years","agree-key",0.2,-1.6094379124341
24,2140,"truthJudge","wrote",75,"Lucas","writes novels",20,"novels","10 years","agree-key",2,0.693147180559945
24,3304,"truthJudge","drank",50,"Daniel","drinks beer",5,"beers","month","agree-key",60,4.0943445622221
